File: xrd-analysis/bsu/rsm-data.txt
_FILEVERSION = 3
_SAMPLE =
_+SAMPLE =
_SITE = "Boise, ID"
_USER = "Boise State University"
_GONIOMETER_CODE = 21
_STAGE_CODE = 13
; Goniometer : D8 theta/theta, stage : Unknown
_SAMPLE_CHANGER_CODE = 0
_ATTACHMENTS_CODE = 0
_GONIOMETER_RADIUS = 317.5
_FIXED_DIVSLIT = 1
_FIXED_SAMPLESLIT = 0
_SOLLER_SLITS = 2
_FIXED_DETSLIT = 0
_MONOCHROMATOR = 0
; Incident beam monochromator : None
_SOLLER_SLITS_2 = N
_THIN_FILM = N
_BETA_FILTER = N
_FIXED_ANTISLIT = 0
_ANALYZER_CODE = 4
; Received beam analyzer : Göbel mirror
_DATEMEASURED = "25-Aug-2022 16:44:19"
_WL_UNIT = A
_WL1 = 1.5406
_WL2 = 1.54439
_WL3 = 1.39222
_WLRATIO = 0.5
_ANODE = Cu
_V4_INF_CREATOR = XRDWizard
_V4_INF_CREATOR_VERSION = V2.9.0.12
_V4_INF_WIZARD_VERSION = V2.9.0.12
_V4_INF_WIZARD_ADDINS = V2.9.0.12
_V4_INF_WIZARD_DOCTYPE = HRXRD
_V4_INF_SUBSTRATE = GaAs
_V4_INF_ALIGNMENT_STEPS = 101
_V4_INF_LOOP_VARINFO = 0.000000
_V4_INF_OSUSER = BrukerAdministrator
_V4_INF_USER = Boise State University
_V4_INF_SITE = Boise, ID

; Data for range 1
_DRIVE = THETA
_STEPTIME = 0.1
_STEPSIZE = 0.001
_STEPMODE = C
_START = 11.6094
_THETA = 11.6094
_2THETA = 24.6479
_KHI = -0.0124
_PHI = 0
_X = 0
_Y = 0
_Z = -0.29
_DETECTOR = 1
; Detector type : Scintillation counter
_HV = 786.2
_GAIN = 80
_LLD = 0.296
_ULD = 1.864
_DETECTORSLIT = out
_AUX1 = 1.9998
_AUX2 = 0
_AUX3 = 0
_TIMESTARTED = 4
_TEMP_RATE = -1
_TEMP_DELAY = -1
_KV = 40
_MA = 40
_RANGE_WL = 1.5406
_3DPLANE = 0
_V4_ADDITIONALDETECTOR = 0
_V4_D8_DIBNUM = 1
_V4_DETECTORNAME = "Detector 1"
_V4_TTLDETECTOR = None
_V4_DETECTORTYPE = 1
_V4_DETECTORFLAGS = 524545
_V4_DETECTORHV = 786.2
_V4_DETECTORGAIN = 80
_V4_DETECTORLLD1 = 0.296
_V4_DETECTORWW1 = 1.568
_V4_DETECTORLLD2 = 0
_V4_DETECTORWW2 = 0
_V4_DETECTORPS = 0
_V4_DETECTORDT = 0
_V4_DETECTORPILEUPTIME = 0
_V4_COUNTERS_MASK = 1
_V4_DRIVES_MASK = 0
_V4_ENCODERS_MASK = 0
_2THETACOUNTS = 1
; THETA  Cnt1_D1
  11.6094          0
  11.6114          1
  11.6134          0
  11.6154          0
  11.6174          0
  11.6194          1
  11.6214          0
  11.6234          1
  11.6254          0
  11.6274          0
  11.6294          1
  11.6314          0
  11.6334          1
  11.6354          0
  11.6374          0
  11.6394          1
  11.6414          1
  11.6434          1
  11.6454          0
  11.6474          1
  11.6494          1
  11.6514          2
  11.6534          0
  11.6554          0
  11.6574          2
  11.6594          0
  11.6614          1
  11.6634          0
  11.6654          1
  11.6674          0
  11.6694          2
  11.6714          0
  11.6734          0
  11.6754          2
  11.6774          2
  11.6794          1
  11.6814          1
  11.6834          0
  11.6854          0
  11.6874          1
  11.6894          0
  11.6914          1
  11.6934          0
  11.6954          1
  11.6974          0
  11.6994          1
  11.7014          1
  11.7034          1
  11.7054          1
  11.7074          0
  11.7094          2
  11.7114          0
  11.7134          0
  11.7154          1
  11.7174          0
  11.7194          1
  11.7214          0
  11.7234          1
  11.7254          3
  11.7274          1
  11.7294          0
  11.7314          1
  11.7334          0
  11.7354          0
  11.7374          0
  11.7394          0
  11.7414          0
  11.7434          1
  11.7454          1
  11.7474          0
  11.7494          1
  11.7514          0
  11.7534          1
  11.7554          1
  11.7574          0
  11.7594          1
  11.7614          0
  11.7634          1
  11.7654          2
  11.7674          0
  11.7694          1
  11.7714          0
  11.7734          1
  11.7754          1
  11.7774          0
  11.7794          3
  11.7814          0
  11.7834          2
  11.7854          0
  11.7874          1
  11.7894          0
  11.7914          1
  11.7934          2
  11.7954          1
  11.7974          1
  11.7994          1
  11.8014          1
  11.8034          0
  11.8054          1
  11.8074          0
  11.8094          2
  11.8114          4
  11.8134          1
  11.8154          2
  11.8174          2
  11.8194          2
  11.8214          1
  11.8234          1
  11.8254          3
  11.8274          1
  11.8294          2
  11.8314          0
  11.8334          0
  11.8354          1
  11.8374          1
  11.8394          0
  11.8414          2
  11.8434          3
  11.8454          1
  11.8474          0
  11.8494          1
  11.8514          2
  11.8534          3
  11.8554          4
  11.8574          3
  11.8594          4
  11.8614          3
  11.8634          2
  11.8654          3
  11.8674          1
  11.8694          2
  11.8714          0
  11.8734          2
  11.8754          4
  11.8774          1
  11.8794          1
  11.8814          2
  11.8834          1
  11.8854          2
  11.8874          0
  11.8894          0
  11.8914          2
  11.8934          1
  11.8954          2
  11.8974          1
  11.8994          3
  11.9014          2
  11.9034          2
  11.9054          3
  11.9074          3
  11.9094          1
  11.9114          1
  11.9134          1
  11.9154          1
  11.9174          0
  11.9194          2
  11.9214          1
  11.9234          4
  11.9254          0
  11.9274          1
  11.9294          4
  11.9314          0
  11.9334          1
  11.9354          1
  11.9374          2
  11.9394          0
  11.9414          1
  11.9434          1
  11.9454          2
  11.9474          3
  11.9494          0
  11.9514          2
  11.9534          1
  11.9554          4
  11.9574          3
  11.9594          0
  11.9614          1
  11.9634          2
  11.9654          1
  11.9674          0
  11.9694          0
  11.9714          2
  11.9734          0
  11.9754          2
  11.9774          0
  11.9794          1
  11.9814          3
  11.9834          1
  11.9854          0
  11.9874          1
  11.9894          0
  11.9914          0
  11.9934          1
  11.9954          1
  11.9974          0
  11.9994          5
  12.0014          1
  12.0034          1
  12.0054          1
  12.0074          0
  12.0094          1
  12.0114          0
  12.0134          1
  12.0154          2
  12.0174          0
  12.0194          1
  12.0214          3
  12.0234          0
  12.0254          1
  12.0274          0
  12.0294          1
  12.0314          0
  12.0334          0
  12.0354          1
  12.0374          1
  12.0394          5
  12.0414          1
  12.0434          0
  12.0454          0
  12.0474          0
  12.0494          0
  12.0514          1
  12.0534          2
  12.0554          1
  12.0574          1
  12.0594          2
  12.0614          4
  12.0634          0
  12.0654          2
  12.0674          2
  12.0694          2
  12.0714          2
  12.0734          1
  12.0754          0
  12.0774          3
  12.0794          4
  12.0814          0
  12.0834          0
  12.0854          2
  12.0874          1
  12.0894          0
  12.0914          0
  12.0934          0
  12.0954          2
  12.0974          0
  12.0994          0
  12.1014          0
  12.1034          1
  12.1054          0
  12.1074          1
  12.1094          0
  12.1114          2
  12.1134          1
  12.1154          0
  12.1174          0
  12.1194          0
  12.1214          2
  12.1234          0
  12.1254          0
  12.1274          1
  12.1294          0
  12.1314          1
  12.1334          1
  12.1354          0
  12.1374          0
  12.1394          0
  12.1414          1
  12.1434          0
  12.1454          0
  12.1474          1
  12.1494          0
  12.1514          0
  12.1534          0
  12.1554          2
  12.1574          0
  12.1594          1
  12.1614          1
  12.1634          0
  12.1654          1
  12.1674          1
  12.1694          2
  12.1714          0
  12.1734          0
  12.1754          0
  12.1774          0
  12.1794          1
  12.1814          1
  12.1834          1
  12.1854          0
  12.1874          1
  12.1894          0
  12.1914          0
  12.1934          0
  12.1954          0
  12.1974          1
  12.1994          1
  12.2014          0
  12.2034          0
  12.2054          2
  12.2074          1
  12.2094          0
  12.2114          0
  12.2134          0
  12.2154          1
  12.2174          0
  12.2194          0
  12.2214          0
  12.2234          0
  12.2254          1
  12.2274          1
  12.2294          0
  12.2314          1
  12.2334          0
  12.2354          1
  12.2374          0
  12.2394          1
  12.2414          1
  12.2434          2
  12.2454          1
  12.2474          0
  12.2494          0
  12.2514          0
  12.2534          0
  12.2554          0
  12.2574          1
  12.2594          1
  12.2614          1
  12.2634          1
  12.2654          0
  12.2674          0
  12.2694          1
  12.2714          1
  12.2734          0
  12.2754          2
  12.2774          2
  12.2794          1
  12.2814          0
  12.2834          1
  12.2854          1
  12.2874          1
  12.2894          1
  12.2914          1
  12.2934          1
  12.2954          0
  12.2974          0
  12.2994          1
  12.3014          0
  12.3034          1
  12.3054          1
  12.3074          2
  12.3094          0
  12.3114          0
  12.3134          0
  12.3154          0
  12.3174          0
  12.3194          0
  12.3214          0
  12.3234          2
  12.3254          1
  12.3274          0
  12.3294          1
  12.3314          0
  12.3334          2
  12.3354          0
  12.3374          0
  12.3394          0
  12.3414          0
  12.3434          1
  12.3454          0
  12.3474          1
  12.3494          0
  12.3514          0
  12.3534          0
  12.3554          0
  12.3574          0
  12.3594          0
  12.3614          1
  12.3634          1
  12.3654          0
  12.3674          1
  12.3694          0
  12.3714          0
  12.3734          0
  12.3754          0
  12.3774          0
  12.3794          1
  12.3814          1
  12.3834          0
  12.3854          0
  12.3874          0
  12.3894          0
  12.3914          1
  12.3934          0
  12.3954          1
  12.3974          0
  12.3994          0
  12.4014          1
  12.4034          0
  12.4054          1
  12.4074          0
  12.4094          0
  12.4114          1
  12.4134          1
  12.4154          0
  12.4174          0
  12.4194          0
  12.4214          1
  12.4234          2
  12.4254          2
  12.4274          2
  12.4294          0
  12.4314          1
  12.4334          1
  12.4354          0
  12.4374          2
  12.4394          0
  12.4414          0
  12.4434          1
  12.4454          0
  12.4474          3
  12.4494          0
  12.4514          0
  12.4534          0
  12.4554          1
  12.4574          0
  12.4594          1
  12.4614          0
  12.4634          1
  12.4654          0
  12.4674          0
  12.4694          0
  12.4714          0
  12.4734          0
  12.4754          0
  12.4774          0
  12.4794          0
  12.4814          0
  12.4834          0
  12.4854          2
  12.4874          0
  12.4894          0
  12.4914          2
  12.4934          0
  12.4954          0
  12.4974          1
  12.4994          0
  12.5014          0
  12.5034          0
  12.5054          0
  12.5074          0
  12.5094          0
  12.5114          0
  12.5134          1
  12.5154          0
  12.5174          2
  12.5194          2
  12.5214          1
  12.5234          0
  12.5254          1
  12.5274          1
  12.5294          0
  12.5314          0
  12.5334          0
  12.5354          0
  12.5374          0
  12.5394          1
  12.5414          1
  12.5434          1
  12.5454          0
  12.5474          2
  12.5494          2
  12.5514          0
  12.5534          1
  12.5554          0
  12.5574          0
  12.5594          3
  12.5614          0
  12.5634          1
  12.5654          1
  12.5674          0
  12.5694          0
  12.5714          0
  12.5734          0
  12.5754          0
  12.5774          1
  12.5794          0
  12.5814          0
  12.5834          0
  12.5854          2
  12.5874          1
  12.5894          1
  12.5914          1
  12.5934          0
  12.5954          0
  12.5974          1
  12.5994          0
  12.6014          0
  12.6034          0
  12.6054          1
  12.6074          0
  12.6094          0
  12.6114          1
  12.6134          0
  12.6154          0
  12.6174          0
  12.6194          1
  12.6214          0
  12.6234          1
  12.6254          1
  12.6274          0
  12.6294          1
  12.6314          0
  12.6334          1
  12.6354          0
  12.6374          0
  12.6394          1
  12.6414          0
  12.6434          3
  12.6454          0
  12.6474          1
  12.6494          0
  12.6514          0
  12.6534          0
  12.6554          1
  12.6574          0
  12.6594          2
  12.6614          0
  12.6634          0
  12.6654          0
  12.6674          0
  12.6694          0
  12.6714          0
  12.6734          0
  12.6754          0
  12.6774          0
  12.6794          0
  12.6814          1
  12.6834          0
  12.6854          0
  12.6874          0
  12.6894          2
  12.6914          0
  12.6934          1
  12.6954          1
  12.6974          0
  12.6994          0
  12.7014          0
  12.7034          0
  12.7054          1
  12.7074          0
  12.7094          0
  12.7114          2
  12.7134          0
  12.7154          1
  12.7174          0
  12.7194          0
  12.7214          0
  12.7234          0
  12.7254          1
  12.7274          0
  12.7294          0
  12.7314          2
  12.7334          0
  12.7354          0
  12.7374          1
  12.7394          0
  12.7414          1
  12.7434          0
  12.7454          1
  12.7474          1
  12.7494          2
  12.7514          1
  12.7534          0
  12.7554          0
  12.7574          1
  12.7594          0
  12.7614          1
  12.7634          0
  12.7654          0
  12.7674          0
  12.7694          1
  12.7714          1
  12.7734          2
  12.7754          0
  12.7774          0
  12.7794          0
  12.7814          0
  12.7834          0
  12.7854          0
  12.7874          0
  12.7894          0
  12.7914          0
  12.7934          0
  12.7954          2
  12.7974          1
  12.7994          0
  12.8014          1
  12.8034          0
  12.8054          0
  12.8074          0
  12.8094          1
  12.8114          2
  12.8134          0
  12.8154          1
  12.8174          1
  12.8194          0
  12.8214          4
  12.8234          0
  12.8254          1
  12.8274          0
  12.8294          1
  12.8314          0
  12.8334          1
  12.8354          0
  12.8374          0
  12.8394          0
  12.8414          1
  12.8434          2
  12.8454          1
  12.8474          1
  12.8494          1
  12.8514          1
  12.8534          1
  12.8554          1
  12.8574          1
  12.8594          0
  12.8614          1
  12.8634          0
  12.8654          2
  12.8674          1
  12.8694          3
  12.8714          2
  12.8734          0
  12.8754          1
  12.8774          0
  12.8794          0
  12.8814          1
  12.8834          0
  12.8854          1
  12.8874          0
  12.8894          1
  12.8914          0
  12.8934          2
  12.8954          2
  12.8974          1
  12.8994          4
  12.9014          0
  12.9034          1
  12.9054          5
  12.9074          0
  12.9094          2
  12.9114          1
  12.9134          2
  12.9154          1
  12.9174          3
  12.9194          4
  12.9214          3
  12.9234          3
  12.9254          3
  12.9274          6
  12.9294          2
  12.9314          3
  12.9334          6
  12.9354          7
  12.9374          7
  12.9394          7
  12.9414          4
  12.9434          8
  12.9454          4
  12.9474          5
  12.9494          2
  12.9514          7
  12.9534          4
  12.9554          3
  12.9574          3
  12.9594          5
  12.9614          2
  12.9634          2
  12.9654          2
  12.9674          4
  12.9694          2
  12.9714          0
  12.9734          1
  12.9754          4
  12.9774          3
  12.9794          1
  12.9814          3
  12.9834          1
  12.9854          1
  12.9874          1
  12.9894          1
  12.9914          1
  12.9934          2
  12.9954          2
  12.9974          0
  12.9994          1
  13.0014          0
  13.0034          2
  13.0054          0
  13.0074          0
  13.0094          1
  13.0114          0
  13.0134          1
  13.0154          0
  13.0174          1
  13.0194          1
  13.0214          1
  13.0234          0
  13.0254          1
  13.0274          1
  13.0294          0
  13.0314          0
  13.0334          0
  13.0354          0
  13.0374          1
  13.0394          1
  13.0414          2
  13.0434          0
  13.0454          0
  13.0474          2
  13.0494          1
  13.0514          1
  13.0534          1
  13.0554          0
  13.0574          0
  13.0594          0
  13.0614          1
  13.0634          2
  13.0654          0
  13.0674          3
  13.0694          1
  13.0714          1
  13.0734          0
  13.0754          0
  13.0774          0
  13.0794          1
  13.0814          1
  13.0834          1
  13.0854          0
  13.0874          0
  13.0894          1
  13.0914          0
  13.0934          0
  13.0954          0
  13.0974          2
  13.0994          1
  13.1014          0
  13.1034          2
  13.1054          1
  13.1074          0
  13.1094          0
  13.1114          0
  13.1134          1
  13.1154          0
  13.1174          1
  13.1194          0
  13.1214          1
  13.1234          2
  13.1254          2
  13.1274          1
  13.1294          0
  13.1314          0
  13.1334          0
  13.1354          0
  13.1374          0
  13.1394          0
  13.1414          0
  13.1434          1
  13.1454          0
  13.1474          0
  13.1494          1
  13.1514          0
  13.1534          1
  13.1554          0
  13.1574          1
  13.1594          1
  13.1614          3
  13.1634          1
  13.1654          1
  13.1674          0
  13.1694          0
  13.1714          4
  13.1734          1
  13.1754          0
  13.1774          1
  13.1794          1
  13.1814          0
  13.1834          1
  13.1854          0
  13.1874          0
  13.1894          0
  13.1914          1
  13.1934          0
  13.1954          1
  13.1974          0
  13.1994          1
  13.2014          0
  13.2034          0
  13.2054          0
  13.2074          1
  13.2094          1

; Data for range 2
_DRIVE = THETA
_STEPTIME = 0.1
_STEPSIZE = 0.001
_STEPMODE = C
_START = 11.6294
_THETA = 11.6294
_2THETA = 24.6479
_KHI = -0.0124
_PHI = 0
_X = 0
_Y = 0
_Z = -0.29
_DETECTOR = 1
; Detector type : Scintillation counter
_HV = 786.2
_GAIN = 80
_LLD = 0.296
_ULD = 1.864
_DETECTORSLIT = out
_AUX1 = 1.9998
_AUX2 = 0
_AUX3 = 0
_TIMESTARTED = 168
_TEMP_RATE = -1
_TEMP_DELAY = -1
_KV = 40
_MA = 40
_RANGE_WL = 1.5406
_3DPLANE = 0
_V4_ADDITIONALDETECTOR = 0
_V4_D8_DIBNUM = 1
_V4_DETECTORNAME = "Detector 1"
_V4_TTLDETECTOR = None
_V4_DETECTORTYPE = 1
_V4_DETECTORFLAGS = 524545
_V4_DETECTORHV = 786.2
_V4_DETECTORGAIN = 80
_V4_DETECTORLLD1 = 0.296
_V4_DETECTORWW1 = 1.568
_V4_DETECTORLLD2 = 0
_V4_DETECTORWW2 = 0
_V4_DETECTORPS = 0
_V4_DETECTORDT = 0
_V4_DETECTORPILEUPTIME = 0
_V4_COUNTERS_MASK = 1
_V4_DRIVES_MASK = 0
_V4_ENCODERS_MASK = 0
_2THETACOUNTS = 1
; THETA  Cnt1_D1
  11.6294          0
  11.6314          0
  11.6334          0
  11.6354          1
  11.6374          2
  11.6394          0
  11.6414          0
  11.6434          2
  11.6454          0
  11.6474          1
  11.6494          1
  11.6514          2
  11.6534          0
  11.6554          0
  11.6574          0
  11.6594          0
  11.6614          0
  11.6634          1
  11.6654          0
  11.6674          1
  11.6694          2
  11.6714          0
  11.6734          0
  11.6754          0
  11.6774          0
  11.6794          1
  11.6814          0
  11.6834          1
  11.6854          1
  11.6874          0
  11.6894          0
  11.6914          3
  11.6934          1
  11.6954          1
  11.6974          1
  11.6994          0
  11.7014          0
  11.7034          0
  11.7054          0
  11.7074          1
  11.7094          0
  11.7114          1
  11.7134          1
  11.7154          0
  11.7174          1
  11.7194          1
  11.7214          1
  11.7234          0
  11.7254          0
  11.7274          0
  11.7294          1
  11.7314          1
  11.7334          2
  11.7354          1
  11.7374          1
  11.7394          0
  11.7414          1
  11.7434          2
  11.7454          0
  11.7474          2
  11.7494          0
  11.7514          0
  11.7534          0
  11.7554          1
  11.7574          0
  11.7594          0
  11.7614          0
  11.7634          0
  11.7654          0
  11.7674          1
  11.7694          1
  11.7714          0
  11.7734          0
  11.7754          1
  11.7774          0
  11.7794          0
  11.7814          0
  11.7834          2
  11.7854          0
  11.7874          0
  11.7894          1
  11.7914          0
  11.7934          0
  11.7954          2
  11.7974          1
  11.7994          0
  11.8014          1
  11.8034          0
  11.8054          1
  11.8074          0
  11.8094          0
  11.8114          0
  11.8134          0
  11.8154          0
  11.8174          2
  11.8194          2
  11.8214          1
  11.8234          0
  11.8254          0
  11.8274          1
  11.8294          1
  11.8314          2
  11.8334          0
  11.8354          0
  11.8374          0
  11.8394          0
  11.8414          3
  11.8434          0
  11.8454          0
  11.8474          1
  11.8494          0
  11.8514          1
  11.8534          0
  11.8554          0
  11.8574          1
  11.8594          1
  11.8614          1
  11.8634          0
  11.8654          1
  11.8674          4
  11.8694          3
  11.8714          3
  11.8734          2
  11.8754          2
  11.8774          2
  11.8794          1
  11.8814          2
  11.8834          1
  11.8854          1
  11.8874          3
  11.8894          2
  11.8914          2
  11.8934          2
  11.8954          2
  11.8974          1
  11.8994          4
  11.9014          2
  11.9034          1
  11.9054          5
  11.9074          0
  11.9094          3
  11.9114          0
  11.9134          1
  11.9154          2
  11.9174          2
  11.9194          0
  11.9214          1
  11.9234          0
  11.9254          1
  11.9274          1
  11.9294          1
  11.9314          2
  11.9334          2
  11.9354          1
  11.9374          1
  11.9394          2
  11.9414          1
  11.9434          1
  11.9454          0
  11.9474          2
  11.9494          1
  11.9514          1
  11.9534          3
  11.9554          2
  11.9574          2
  11.9594          3
  11.9614          3
  11.9634          1
  11.9654          2
  11.9674          1
  11.9694          3
  11.9714          2
  11.9734          2
  11.9754          2
  11.9774          3
  11.9794          0
  11.9814          1
  11.9834          2
  11.9854          0
  11.9874          0
  11.9894          1
  11.9914          0
  11.9934          2
  11.9954          0
  11.9974          0
  11.9994          0
  12.0014          1
  12.0034          1
  12.0054          0
  12.0074          0
  12.0094          2
  12.0114          1
  12.0134          1
  12.0154          3
  12.0174          1
  12.0194          1
  12.0214          0
  12.0234          6
  12.0254          0
  12.0274          1
  12.0294          2
  12.0314          0
  12.0334          3
  12.0354          1
  12.0374          1
  12.0394          0
  12.0414          1
  12.0434          0
  12.0454          0
  12.0474          1
  12.0494          0
  12.0514          2
  12.0534          1
  12.0554          0
  12.0574          1
  12.0594          2
  12.0614          3
  12.0634          4
  12.0654          0
  12.0674          4
  12.0694          3
  12.0714          2
  12.0734          4
  12.0754          4
  12.0774          0
  12.0794          2
  12.0814          4
  12.0834          0
  12.0854          3
  12.0874          1
  12.0894          2
  12.0914          0
  12.0934          0
  12.0954          0
  12.0974          3
  12.0994          0
  12.1014          2
  12.1034          0
  12.1054          2
  12.1074          0
  12.1094          0
  12.1114          1
  12.1134          1
  12.1154          2
  12.1174          1
  12.1194          1
  12.1214          1
  12.1234          3
  12.1254          0
  12.1274          1
  12.1294          0
  12.1314          0
  12.1334          2
  12.1354          0
  12.1374          1
  12.1394          1
  12.1414          0
  12.1434          1
  12.1454          0
  12.1474          0
  12.1494          0
  12.1514          0
  12.1534          1
  12.1554          0
  12.1574          0
  12.1594          1
  12.1614          0
  12.1634          0
  12.1654          1
  12.1674          1
  12.1694          0
  12.1714          0
  12.1734          1
  12.1754          0
  12.1774          1
  12.1794          1
  12.1814          3
  12.1834          0
  12.1854          0
  12.1874          1
  12.1894          0
  12.1914          0
  12.1934          0
  12.1954          1
  12.1974          0
  12.1994          0
  12.2014          0
  12.2034          1
  12.2054          0
  12.2074          0
  12.2094          0
  12.2114          1
  12.2134          0
  12.2154          0
  12.2174          0
  12.2194          0
  12.2214          0
  12.2234          0
  12.2254          1
  12.2274          0
  12.2294          1
  12.2314          1
  12.2334          0
  12.2354          0
  12.2374          1
  12.2394          0
  12.2414          0
  12.2434          2
  12.2454          0
  12.2474          0
  12.2494          2
  12.2514          0
  12.2534          2
  12.2554          0
  12.2574          0
  12.2594          1
  12.2614          0
  12.2634          0
  12.2654          0
  12.2674          0
  12.2694          1
  12.2714          1
  12.2734          0
  12.2754          0
  12.2774          0
  12.2794          0
  12.2814          0
  12.2834          1
  12.2854          2
  12.2874          0
  12.2894          0
  12.2914          1
  12.2934          0
  12.2954          2
  12.2974          1
  12.2994          0
  12.3014          0
  12.3034          1
  12.3054          2
  12.3074          1
  12.3094          1
  12.3114          0
  12.3134          1
  12.3154          2
  12.3174          0
  12.3194          1
  12.3214          0
  12.3234          0
  12.3254          2
  12.3274          0
  12.3294          1
  12.3314          0
  12.3334          0
  12.3354          0
  12.3374          0
  12.3394          1
  12.3414          0
  12.3434          0
  12.3454          0
  12.3474          0
  12.3494          0
  12.3514          0
  12.3534          2
  12.3554          1
  12.3574          2
  12.3594          0
  12.3614          0
  12.3634          1
  12.3654          0
  12.3674          2
  12.3694          1
  12.3714          1
  12.3734          0
  12.3754          1
  12.3774          0
  12.3794          0
  12.3814          0
  12.3834          0
  12.3854          0
  12.3874          1
  12.3894          0
  12.3914          0
  12.3934          1
  12.3954          0
  12.3974          1
  12.3994          0
  12.4014          0
  12.4034          0
  12.4054          0
  12.4074          0
  12.4094          0
  12.4114          0
  12.4134          0
  12.4154          0
  12.4174          0
  12.4194          1
  12.4214          0
  12.4234          2
  12.4254          0
  12.4274          0
  12.4294          0
  12.4314          1
  12.4334          0
  12.4354          2
  12.4374          0
  12.4394          0
  12.4414          2
  12.4434          0
  12.4454          1
  12.4474          0
  12.4494          1
  12.4514          0
  12.4534          1
  12.4554          0
  12.4574          1
  12.4594          0
  12.4614          0
  12.4634          1
  12.4654          1
  12.4674          1
  12.4694          0
  12.4714          1
  12.4734          0
  12.4754          0
  12.4774          1
  12.4794          0
  12.4814          1
  12.4834          0
  12.4854          0
  12.4874          1
  12.4894          0
  12.4914          1
  12.4934          1
  12.4954          1
  12.4974          1
  12.4994          0
  12.5014          0
  12.5034          0
  12.5054          0
  12.5074          1
  12.5094          0
  12.5114          1
  12.5134          0
  12.5154          3
  12.5174          0
  12.5194          2
  12.5214          1
  12.5234          0
  12.5254          0
  12.5274          0
  12.5294          2
  12.5314          0
  12.5334          0
  12.5354          0
  12.5374          1
  12.5394          1
  12.5414          0
  12.5434          0
  12.5454          0
  12.5474          1
  12.5494          1
  12.5514          1
  12.5534          1
  12.5554          0
  12.5574          0
  12.5594          2
  12.5614          1
  12.5634          0
  12.5654          1
  12.5674          1
  12.5694          1
  12.5714          0
  12.5734          1
  12.5754          1
  12.5774          0
  12.5794          0
  12.5814          0
  12.5834          0
  12.5854          1
  12.5874          0
  12.5894          1
  12.5914          1
  12.5934          0
  12.5954          2
  12.5974          1
  12.5994          0
  12.6014          2
  12.6034          1
  12.6054          0
  12.6074          2
  12.6094          1
  12.6114          1
  12.6134          0
  12.6154          0
  12.6174          0
  12.6194          0
  12.6214          2
  12.6234          0
  12.6254          1
  12.6274          1
  12.6294          0
  12.6314          0
  12.6334          0
  12.6354          0
  12.6374          0
  12.6394          1
  12.6414          0
  12.6434          1
  12.6454          0
  12.6474          0
  12.6494          0
  12.6514          1
  12.6534          0
  12.6554          1
  12.6574          1
  12.6594          0
  12.6614          0
  12.6634          0
  12.6654          2
  12.6674          0
  12.6694          0
  12.6714          2
  12.6734          0
  12.6754          1
  12.6774          1
  12.6794          2
  12.6814          0
  12.6834          0
  12.6854          0
  12.6874          0
  12.6894          1
  12.6914          0
  12.6934          0
  12.6954          1
  12.6974          0
  12.6994          2
  12.7014          0
  12.7034          0
  12.7054          0
  12.7074          1
  12.7094          2
  12.7114          0
  12.7134          2
  12.7154          0
  12.7174          0
  12.7194          1
  12.7214          0
  12.7234          2
  12.7254          0
  12.7274          0
  12.7294          1
  12.7314          2
  12.7334          0
  12.7354          0
  12.7374          1
  12.7394          0
  12.7414          1
  12.7434          0
  12.7454          1
  12.7474          0
  12.7494          1
  12.7514          2
  12.7534          1
  12.7554          0
  12.7574          1
  12.7594          0
  12.7614          0
  12.7634          0
  12.7654          0
  12.7674          0
  12.7694          0
  12.7714          1
  12.7734          0
  12.7754          1
  12.7774          1
  12.7794          0
  12.7814          0
  12.7834          0
  12.7854          0
  12.7874          3
  12.7894          0
  12.7914          0
  12.7934          0
  12.7954          2
  12.7974          1
  12.7994          1
  12.8014          0
  12.8034          3
  12.8054          0
  12.8074          0
  12.8094          1
  12.8114          0
  12.8134          0
  12.8154          0
  12.8174          1
  12.8194          0
  12.8214          0
  12.8234          0
  12.8254          1
  12.8274          0
  12.8294          1
  12.8314          1
  12.8334          0
  12.8354          2
  12.8374          0
  12.8394          0
  12.8414          0
  12.8434          1
  12.8454          1
  12.8474          2
  12.8494          0
  12.8514          0
  12.8534          1
  12.8554          1
  12.8574          1
  12.8594          0
  12.8614          0
  12.8634          1
  12.8654          1
  12.8674          1
  12.8694          1
  12.8714          1
  12.8734          2
  12.8754          0
  12.8774          3
  12.8794          1
  12.8814          2
  12.8834          1
  12.8854          2
  12.8874          0
  12.8894          0
  12.8914          3
  12.8934          1
  12.8954          1
  12.8974          0
  12.8994          2
  12.9014          2
  12.9034          2
  12.9054          1
  12.9074          1
  12.9094          2
  12.9114          1
  12.9134          3
  12.9154          2
  12.9174          1
  12.9194          2
  12.9214          1
  12.9234          1
  12.9254          3
  12.9274          0
  12.9294          6
  12.9314          3
  12.9334          7
  12.9354          3
  12.9374          1
  12.9394          2
  12.9414          2
  12.9434          5
  12.9454          2
  12.9474          8
  12.9494          6
  12.9514          5
  12.9534         11
  12.9554          7
  12.9574         10
  12.9594          9
  12.9614          6
  12.9634          8
  12.9654          7
  12.9674          8
  12.9694          8
  12.9714          4
  12.9734          7
  12.9754          4
  12.9774          4
  12.9794          3
  12.9814          4
  12.9834          3
  12.9854          0
  12.9874          4
  12.9894          1
  12.9914          5
  12.9934          3
  12.9954          1
  12.9974          0
  12.9994          2
  13.0014          1
  13.0034          2
  13.0054          1
  13.0074          1
  13.0094          0
  13.0114          3
  13.0134          3
  13.0154          2
  13.0174          1
  13.0194          0
  13.0214          0
  13.0234          2
  13.0254          1
  13.0274          1
  13.0294          1
  13.0314          1
  13.0334          3
  13.0354          1
  13.0374          1
  13.0394          3
  13.0414          0
  13.0434          0
  13.0454          1
  13.0474          1
  13.0494          1
  13.0514          2
  13.0534          0
  13.0554          1
  13.0574          0
  13.0594          0
  13.0614          1
  13.0634          1
  13.0654          0
  13.0674          2
  13.0694          0
  13.0714          0
  13.0734          0
  13.0754          2
  13.0774          1
  13.0794          1
  13.0814          1
  13.0834          3
  13.0854          0
  13.0874          0
  13.0894          0
  13.0914          0
  13.0934          1
  13.0954          0
  13.0974          2
  13.0994          1
  13.1014          0
  13.1034          0
  13.1054          2
  13.1074          0
  13.1094          1
  13.1114          1
  13.1134          0
  13.1154          1
  13.1174          1
  13.1194          0
  13.1214          0
  13.1234          0
  13.1254          0
  13.1274          2
  13.1294          0
  13.1314          0
  13.1334          0
  13.1354          0
  13.1374          1
  13.1394          2
  13.1414          1
  13.1434          2
  13.1454          1
  13.1474          2
  13.1494          0
  13.1514          0
  13.1534          0
  13.1554          0
  13.1574          2
  13.1594          0
  13.1614          1
  13.1634          0
  13.1654          3
  13.1674          0
  13.1694          2
  13.1714          0
  13.1734          1
  13.1754          1
  13.1774          0
  13.1794          0
  13.1814          0
  13.1834          0
  13.1854          1
  13.1874          1
  13.1894          1
  13.1914          1
  13.1934          0
  13.1954          0
  13.1974          0
  13.1994          2
  13.2014          3
  13.2034          2
  13.2054          0
  13.2074          4
  13.2094          0
  13.2114          0
  13.2134          0
  13.2154          0
  13.2174          0
  13.2194          0
  13.2214          0
  13.2234          1
  13.2254          0
  13.2274          0
  13.2294          1

; Data for range 3
_DRIVE = THETA
_STEPTIME = 0.1
_STEPSIZE = 0.001
_STEPMODE = C
_START = 11.6494
_THETA = 11.6494
_2THETA = 24.6479
_KHI = -0.0124
_PHI = 0
_X = 0
_Y = 0
_Z = -0.29
_DETECTOR = 1
; Detector type : Scintillation counter
_HV = 786.2
_GAIN = 80
_LLD = 0.296
_ULD = 1.864
_DETECTORSLIT = out
_AUX1 = 1.9998
_AUX2 = 0
_AUX3 = 0
_TIMESTARTED = 332
_TEMP_RATE = -1
_TEMP_DELAY = -1
_KV = 40
_MA = 40
_RANGE_WL = 1.5406
_3DPLANE = 0
_V4_ADDITIONALDETECTOR = 0
_V4_D8_DIBNUM = 1
_V4_DETECTORNAME = "Detector 1"
_V4_TTLDETECTOR = None
_V4_DETECTORTYPE = 1
_V4_DETECTORFLAGS = 524545
_V4_DETECTORHV = 786.2
_V4_DETECTORGAIN = 80
_V4_DETECTORLLD1 = 0.296
_V4_DETECTORWW1 = 1.568
_V4_DETECTORLLD2 = 0
_V4_DETECTORWW2 = 0
_V4_DETECTORPS = 0
_V4_DETECTORDT = 0
_V4_DETECTORPILEUPTIME = 0
_V4_COUNTERS_MASK = 1
_V4_DRIVES_MASK = 0
_V4_ENCODERS_MASK = 0
_2THETACOUNTS = 1
; THETA  Cnt1_D1
  11.6494          0
  11.6514          0
  11.6534          2
  11.6554          0
  11.6574          0
  11.6594          1
  11.6614          1
  11.6634          0
  11.6654          1
  11.6674          0
  11.6694          0
  11.6714          0
  11.6734          1
  11.6754          1
  11.6774          1
  11.6794          0
  11.6814          1
  11.6834          1
  11.6854          1
  11.6874          1
  11.6894          0
  11.6914          0
  11.6934          0
  11.6954          0
  11.6974          0
  11.6994          0
  11.7014          0
  11.7034          1
  11.7054          0
  11.7074          0
  11.7094          0
  11.7114          1
  11.7134          2
  11.7154          3
  11.7174          0
  11.7194          0
  11.7214          1
  11.7234          1
  11.7254          0
  11.7274          1
  11.7294          0
  11.7314          0
  11.7334          0
  11.7354          0
  11.7374          1
  11.7394          0
  11.7414          0
  11.7434          0
  11.7454          0
  11.7474          1
  11.7494          0
  11.7514          1
  11.7534          0
  11.7554          0
  11.7574          0
  11.7594          2
  11.7614          0
  11.7634          1
  11.7654          0
  11.7674          0
  11.7694          0
  11.7714          0
  11.7734          0
  11.7754          1
  11.7774          0
  11.7794          1
  11.7814          4
  11.7834          2
  11.7854          1
  11.7874          0
  11.7894          0
  11.7914          0
  11.7934          0
  11.7954          0
  11.7974          0
  11.7994          1
  11.8014          0
  11.8034          0
  11.8054          1
  11.8074          0
  11.8094          1
  11.8114          0
  11.8134          0
  11.8154          0
  11.8174          2
  11.8194          1
  11.8214          1
  11.8234          0
  11.8254          0
  11.8274          0
  11.8294          0
  11.8314          0
  11.8334          0
  11.8354          0
  11.8374          1
  11.8394          1
  11.8414          0
  11.8434          2
  11.8454          0
  11.8474          0
  11.8494          3
  11.8514          0
  11.8534          2
  11.8554          0
  11.8574          2
  11.8594          2
  11.8614          0
  11.8634          1
  11.8654          0
  11.8674          1
  11.8694          1
  11.8714          2
  11.8734          1
  11.8754          3
  11.8774          0
  11.8794          0
  11.8814          4
  11.8834          1
  11.8854          1
  11.8874          2
  11.8894          1
  11.8914          4
  11.8934          4
  11.8954          3
  11.8974          0
  11.8994          3
  11.9014          1
  11.9034          3
[...]
  14.9754          1
  14.9774          0
  14.9794          2
  14.9814          1
  14.9834          1
  14.9854          0
  14.9874          1
  14.9894          0
  14.9914          1
  14.9934          1
  14.9954          0
  14.9974          4
  14.9994          1
  15.0014          0
  15.0034          0
  15.0054          1
  15.0074          2
  15.0094          0
  15.0114          0
  15.0134          0
  15.0154          1
  15.0174          0
  15.0194          1
  15.0214          1
  15.0234          2
  15.0254          1
  15.0274          1
  15.0294          2
  15.0314          0
  15.0334          1
  15.0354          1
  15.0374          1
  15.0394          1
  15.0414          0
  15.0434          0
  15.0454          1
  15.0474          1
  15.0494          0
  15.0514          1
  15.0534          1
  15.0554          1
  15.0574          0
  15.0594          0
  15.0614          1
  15.0634          1
  15.0654          1
  15.0674          1
  15.0694          1
  15.0714          0
  15.0734          2
  15.0754          0
  15.0774          1
  15.0794          0
  15.0814          0
  15.0834          0
  15.0854          0
  15.0874          0
  15.0894          1
  15.0914          0
  15.0934          1
  15.0954          0
  15.0974          0
  15.0994          3
  15.1014          0
  15.1034          1
  15.1054          0
  15.1074          0
  15.1094          0
  15.1114          0
  15.1134          1
  15.1154          0
  15.1174          1
  15.1194          1
  15.1214          0
  15.1234          0
  15.1254          1
  15.1274          0
  15.1294          0
  15.1314          0
  15.1334          0
  15.1354          0
  15.1374          1
  15.1394          0
  15.1414          0
  15.1434          0
  15.1454          0
  15.1474          1
  15.1494          0
  15.1514          1
  15.1534          0
  15.1554          0
  15.1574          0
  15.1594          1
  15.1614          1
  15.1634          0
  15.1654          0
  15.1674          0
  15.1694          1
  15.1714          0
  15.1734          0
  15.1754          2
  15.1774          0
  15.1794          1
  15.1814          0
  15.1834          1
  15.1854          0
  15.1874          1
  15.1894          1

; Data for range 101
_DRIVE = THETA
_STEPTIME = 0.1
_STEPSIZE = 0.001
_STEPMODE = C
_START = 13.6094
_THETA = 13.6094
_2THETA = 24.6479
_KHI = -0.0124
_PHI = 0
_X = 0
_Y = 0
_Z = -0.29
_DETECTOR = 1
; Detector type : Scintillation counter
_HV = 786.2
_GAIN = 80
_LLD = 0.296
_ULD = 1.864
_DETECTORSLIT = out
_AUX1 = 1.9998
_AUX2 = 0
_AUX3 = 0
_TIMESTARTED = 1.639e+004
_TEMP_RATE = -1
_TEMP_DELAY = -1
_KV = 40
_MA = 40
_RANGE_WL = 1.5406
_3DPLANE = 0
_V4_ADDITIONALDETECTOR = 0
_V4_D8_DIBNUM = 1
_V4_DETECTORNAME = "Detector 1"
_V4_TTLDETECTOR = None
_V4_DETECTORTYPE = 1
_V4_DETECTORFLAGS = 524545
_V4_DETECTORHV = 786.2
_V4_DETECTORGAIN = 80
_V4_DETECTORLLD1 = 0.296
_V4_DETECTORWW1 = 1.568
_V4_DETECTORLLD2 = 0
_V4_DETECTORWW2 = 0
_V4_DETECTORPS = 0
_V4_DETECTORDT = 0
_V4_DETECTORPILEUPTIME = 0
_V4_COUNTERS_MASK = 1
_V4_DRIVES_MASK = 0
_V4_ENCODERS_MASK = 0
_2THETACOUNTS = 1
; THETA  Cnt1_D1
  13.6094          0
  13.6114          2
  13.6134          0
  13.6154          0
  13.6174          0
  13.6194          1
  13.6214          0
  13.6234          0
  13.6254          1
  13.6274          0
  13.6294          1
  13.6314          1
  13.6334          0
  13.6354          1
  13.6374          0
  13.6394          0
  13.6414          0
  13.6434          0
  13.6454          2
  13.6474          0
  13.6494          2
  13.6514          0
  13.6534          0
  13.6554          0
  13.6574          1
  13.6594          0
  13.6614          0
  13.6634          0
  13.6654          3
  13.6674          0
  13.6694          0
  13.6714          1
  13.6734          1
  13.6754          1
  13.6774          0
  13.6794          2
  13.6814          1
  13.6834          0
  13.6854          0
  13.6874          0
  13.6894          0
  13.6914          0
  13.6934          1
  13.6954          1
  13.6974          0
  13.6994          0
  13.7014          0
  13.7034          1
  13.7054          1
  13.7074          0
  13.7094          0
  13.7114          2
  13.7134          1
  13.7154          2
  13.7174          0
  13.7194          0
  13.7214          0
  13.7234          1
  13.7254          2
  13.7274          1
  13.7294          1
  13.7314          1
  13.7334          3
  13.7354          0
  13.7374          0
  13.7394          2
  13.7414          0
  13.7434          0
  13.7454          0
  13.7474          0
  13.7494          0
  13.7514          0
  13.7534          0
  13.7554          0
  13.7574          0
  13.7594          0
  13.7614          0
  13.7634          0
  13.7654          0
  13.7674          1
  13.7694          0
  13.7714          1
  13.7734          0
  13.7754          2
  13.7774          1
  13.7794          0
  13.7814          1
  13.7834          0
  13.7854          0
  13.7874          0
  13.7894          0
  13.7914          0
  13.7934          0
  13.7954          0
  13.7974          0
  13.7994          0
  13.8014          1
  13.8034          2
  13.8054          2
  13.8074          2
  13.8094          2
  13.8114          1
  13.8134          0
  13.8154          1
  13.8174          3
  13.8194          0
  13.8214          1
  13.8234          1
  13.8254          2
  13.8274          1
  13.8294          1
  13.8314          1
  13.8334          3
  13.8354          0
  13.8374          1
  13.8394          1
  13.8414          3
  13.8434          1
  13.8454          2
  13.8474          2
  13.8494          0
  13.8514          0
  13.8534          0
  13.8554          2
  13.8574          1
  13.8594          1
  13.8614          0
  13.8634          1
  13.8654          1
  13.8674          1
  13.8694          0
  13.8714          0
  13.8734          1
  13.8754          0
  13.8774          0
  13.8794          1
  13.8814          1
  13.8834          2
  13.8854          1
  13.8874          1
  13.8894          1
  13.8914          0
  13.8934          0
  13.8954          2
  13.8974          3
  13.8994          0
  13.9014          1
  13.9034          1
  13.9054          3
  13.9074          1
  13.9094          2
  13.9114          1
  13.9134          1
  13.9154          2
  13.9174          1
  13.9194          0
  13.9214          2
  13.9234          3
  13.9254          2
  13.9274          0
  13.9294          2
  13.9314          5
  13.9334          0
  13.9354          3
  13.9374          0
  13.9394          4
  13.9414          1
  13.9434          1
  13.9454          3
  13.9474          1
  13.9494          2
  13.9514          1
  13.9534          1
  13.9554          0
  13.9574          0
  13.9594          4
  13.9614          2
  13.9634          1
  13.9654          1
  13.9674          0
  13.9694          0
  13.9714          3
  13.9734          1
  13.9754          2
  13.9774          2
  13.9794          2
  13.9814          1
  13.9834          0
  13.9854          0
  13.9874          0
  13.9894          0
  13.9914          0
  13.9934          1
  13.9954          2
  13.9974          1
  13.9994          3
  14.0014          3
  14.0034          2
  14.0054          1
  14.0074          2
  14.0094          3
  14.0114          3
  14.0134          1
  14.0154          1
  14.0174          2
  14.0194          2
  14.0214          2
  14.0234          1
  14.0254          1
  14.0274          2
  14.0294          1
  14.0314          1
  14.0334          1
  14.0354          0
  14.0374          2
  14.0394          0
  14.0414          0
  14.0434          1
  14.0454          3
  14.0474          3
  14.0494          0
  14.0514          1
  14.0534          2
  14.0554          0
  14.0574          1
  14.0594          2
  14.0614          1
  14.0634          1
  14.0654          0
  14.0674          2
  14.0694          1
  14.0714          1
  14.0734          1
  14.0754          0
  14.0774          0
  14.0794          0
  14.0814          1
  14.0834          0
  14.0854          0
  14.0874          2
  14.0894          0
  14.0914          0
  14.0934          2
  14.0954          2
  14.0974          0
  14.0994          0
  14.1014          0
  14.1034          0
  14.1054          0
  14.1074          1
  14.1094          1
  14.1114          1
  14.1134          0
  14.1154          1
  14.1174          0
  14.1194          1
  14.1214          0
  14.1234          0
  14.1254          0
  14.1274          1
  14.1294          0
  14.1314          0
  14.1334          0
  14.1354          1
  14.1374          1
  14.1394          0
  14.1414          1
  14.1434          0
  14.1454          1
  14.1474          3
  14.1494          0
  14.1514          1
  14.1534          1
  14.1554          1
  14.1574          0
  14.1594          1
  14.1614          1
  14.1634          1
  14.1654          0
  14.1674          0
  14.1694          2
  14.1714          0
  14.1734          1
  14.1754          0
  14.1774          0
  14.1794          1
  14.1814          0
  14.1834          0
  14.1854          0
  14.1874          2
  14.1894          0
  14.1914          0
  14.1934          0
  14.1954          0
  14.1974          1
  14.1994          3
  14.2014          1
  14.2034          0
  14.2054          1
  14.2074          1
  14.2094          0
  14.2114          0
  14.2134          0
  14.2154          0
  14.2174          0
  14.2194          1
  14.2214          1
  14.2234          1
  14.2254          0
  14.2274          0
  14.2294          0
  14.2314          1
  14.2334          0
  14.2354          2
  14.2374          1
  14.2394          1
  14.2414          0
  14.2434          1
  14.2454          0
  14.2474          0
  14.2494          1
  14.2514          0
  14.2534          0
  14.2554          0
  14.2574          0
  14.2594          0
  14.2614          0
  14.2634          2
  14.2654          0
  14.2674          1
  14.2694          0
  14.2714          1
  14.2734          0
  14.2754          2
  14.2774          0
  14.2794          0
  14.2814          0
  14.2834          3
  14.2854          0
  14.2874          0
  14.2894          0
  14.2914          0
  14.2934          0
  14.2954          0
  14.2974          0
  14.2994          1
  14.3014          2
  14.3034          0
  14.3054          1
  14.3074          0
  14.3094          0
  14.3114          0
  14.3134          0
  14.3154          0
  14.3174          0
  14.3194          0
  14.3214          0
  14.3234          0
  14.3254          0
  14.3274          1
  14.3294          0
  14.3314          0
  14.3334          0
  14.3354          0
  14.3374          2
  14.3394          0
  14.3414          1
  14.3434          0
  14.3454          2
  14.3474          0
  14.3494          0
  14.3514          0
  14.3534          1
  14.3554          0
  14.3574          1
  14.3594          0
  14.3614          0
  14.3634          1
  14.3654          1
  14.3674          0
  14.3694          0
  14.3714          2
  14.3734          0
  14.3754          2
  14.3774          1
  14.3794          0
  14.3814          0
  14.3834          0
  14.3854          0
  14.3874          1
  14.3894          1
  14.3914          0
  14.3934          0
  14.3954          0
  14.3974          1
  14.3994          0
  14.4014          0
  14.4034          1
  14.4054          0
  14.4074          1
  14.4094          1
  14.4114          0
  14.4134          2
  14.4154          1
  14.4174          1
  14.4194          1
  14.4214          1
  14.4234          1
  14.4254          0
  14.4274          1
  14.4294          0
  14.4314          1
  14.4334          0
  14.4354          0
  14.4374          0
  14.4394          0
  14.4414          0
  14.4434          1
  14.4454          0
  14.4474          0
  14.4494          0
  14.4514          1
  14.4534          1
  14.4554          0
  14.4574          0
  14.4594          1
  14.4614          0
  14.4634          0
  14.4654          0
  14.4674          3
  14.4694          0
  14.4714          0
  14.4734          0
  14.4754          0
  14.4774          0
  14.4794          0
  14.4814          0
  14.4834          1
  14.4854          2
  14.4874          0
  14.4894          0
  14.4914          1
  14.4934          0
  14.4954          0
  14.4974          0
  14.4994          1
  14.5014          0
  14.5034          1
  14.5054          2
  14.5074          1
  14.5094          1
  14.5114          0
  14.5134          0
  14.5154          0
  14.5174          1
  14.5194          0
  14.5214          2
  14.5234          0
  14.5254          0
  14.5274          0
  14.5294          0
  14.5314          1
  14.5334          1
  14.5354          0
  14.5374          1
  14.5394          0
  14.5414          2
  14.5434          1
  14.5454          0
  14.5474          0
  14.5494          3
  14.5514          1
  14.5534          0
  14.5554          0
  14.5574          1
  14.5594          0
  14.5614          0
  14.5634          0
  14.5654          0
  14.5674          0
  14.5694          0
  14.5714          0
  14.5734          1
  14.5754          1
  14.5774          0
  14.5794          2
  14.5814          1
  14.5834          1
  14.5854          0
  14.5874          2
  14.5894          0
  14.5914          1
  14.5934          0
  14.5954          0
  14.5974          1
  14.5994          2
  14.6014          0
  14.6034          0
  14.6054          1
  14.6074          0
  14.6094          1
  14.6114          0
  14.6134          1
  14.6154          0
  14.6174          1
  14.6194          1
  14.6214          0
  14.6234          2
  14.6254          0
  14.6274          0
  14.6294          1
  14.6314          1
  14.6334          0
  14.6354          0
  14.6374          0
  14.6394          0
  14.6414          1
  14.6434          0
  14.6454          0
  14.6474          0
  14.6494          1
  14.6514          1
  14.6534          0
  14.6554          0
  14.6574          0
  14.6594          1
  14.6614          0
  14.6634          0
  14.6654          1
  14.6674          0
  14.6694          2
  14.6714          0
  14.6734          1
  14.6754          1
  14.6774          0
  14.6794          0
  14.6814          1
  14.6834          1
  14.6854          1
  14.6874          1
  14.6894          0
  14.6914          1
  14.6934          1
  14.6954          1
  14.6974          0
  14.6994          0
  14.7014          0
  14.7034          0
  14.7054          0
  14.7074          0
  14.7094          0
  14.7114          1
  14.7134          0
  14.7154          0
  14.7174          0
  14.7194          0
  14.7214          0
  14.7234          0
  14.7254          0
  14.7274          0
  14.7294          0
  14.7314          0
  14.7334          0
  14.7354          0
  14.7374          0
  14.7394          0
  14.7414          0
  14.7434          0
  14.7454          0
  14.7474          1
  14.7494          1
  14.7514          0
  14.7534          0
  14.7554          0
  14.7574          1
  14.7594          0
  14.7614          0
  14.7634          0
  14.7654          1
  14.7674          1
  14.7694          2
  14.7714          0
  14.7734          1
  14.7754          1
  14.7774          0
  14.7794          0
  14.7814          1
  14.7834          1
  14.7854          0
  14.7874          0
  14.7894          0
  14.7914          0
  14.7934          0
  14.7954          1
  14.7974          0
  14.7994          0
  14.8014          0
  14.8034          0
  14.8054          0
  14.8074          1
  14.8094          0
  14.8114          2
  14.8134          0
  14.8154          0
  14.8174          2
  14.8194          1
  14.8214          0
  14.8234          0
  14.8254          2
  14.8274          1
  14.8294          0
  14.8314          0
  14.8334          0
  14.8354          1
  14.8374          2
  14.8394          2
  14.8414          1
  14.8434          0
  14.8454          0
  14.8474          1
  14.8494          0
  14.8514          0
  14.8534          1
  14.8554          2
  14.8574          1
  14.8594          0
  14.8614          0
  14.8634          1
  14.8654          0
  14.8674          0
  14.8694          0
  14.8714          0
  14.8734          0
  14.8754          0
  14.8774          2
  14.8794          2
  14.8814          1
  14.8834          0
  14.8854          0
  14.8874          0
  14.8894          0
  14.8914          1
  14.8934          1
  14.8954          0
  14.8974          0
  14.8994          3
  14.9014          1
  14.9034          2
  14.9054          0
  14.9074          1
  14.9094          2
  14.9114          2
  14.9134          0
  14.9154          0
  14.9174          0
  14.9194          0
  14.9214          0
  14.9234          1
  14.9254          2
  14.9274          3
  14.9294          2
  14.9314          1
  14.9334          0
  14.9354          2
  14.9374          1
  14.9394          6
  14.9414          4
  14.9434          3
  14.9454          2
  14.9474          6
  14.9494          1
  14.9514          3
  14.9534          1
  14.9554          3
  14.9574          5
  14.9594          1
  14.9614          2
  14.9634          1
  14.9654          3
  14.9674          1
  14.9694          1
  14.9714          0
  14.9734          0
  14.9754          0
  14.9774          0
  14.9794          1
  14.9814          0
  14.9834          1
  14.9854          2
  14.9874          0
  14.9894          1
  14.9914          0
  14.9934          0
  14.9954          0
  14.9974          1
  14.9994          0
  15.0014          1
  15.0034          0
  15.0054          0
  15.0074          0
  15.0094          0
  15.0114          2
  15.0134          1
  15.0154          0
  15.0174          0
  15.0194          1
  15.0214          1
  15.0234          1
  15.0254          2
  15.0274          2
  15.0294          0
  15.0314          0
  15.0334          1
  15.0354          0
  15.0374          1
  15.0394          0
  15.0414          0
  15.0434          0
  15.0454          0
  15.0474          0
  15.0494          0
  15.0514          0
  15.0534          2
  15.0554          0
  15.0574          0
  15.0594          1
  15.0614          0
  15.0634          1
  15.0654          0
  15.0674          1
  15.0694          1
  15.0714          0
  15.0734          0
  15.0754          2
  15.0774          0
  15.0794          0
  15.0814          2
  15.0834          0
  15.0854          1
  15.0874          1
  15.0894          0
  15.0914          1
  15.0934          1
  15.0954          0
  15.0974          0
  15.0994          0
  15.1014          1
  15.1034          0
  15.1054          0
  15.1074          2
  15.1094          0
  15.1114          0
  15.1134          1
  15.1154          2
  15.1174          0
  15.1194          0
  15.1214          0
  15.1234          1
  15.1254          1
  15.1274          0
  15.1294          1
  15.1314          1
  15.1334          0
  15.1354          0
  15.1374          1
  15.1394          1
  15.1414          1
  15.1434          0
  15.1454          1
  15.1474          1
  15.1494          1
  15.1514          1
  15.1534          0
  15.1554          0
  15.1574          0
  15.1594          0
  15.1614          1
  15.1634          0
  15.1654          1
  15.1674          0
  15.1694          0
  15.1714          1
  15.1734          1
  15.1754          0
  15.1774          2
  15.1794          1
  15.1814          0
  15.1834          1
  15.1854          0
  15.1874          1
  15.1894          1
  15.1914          0
  15.1934          1
  15.1954          0
  15.1974          0
  15.1994          1
  15.2014          1
  15.2034          1
  15.2054          0
  15.2074          2
  15.2094          0