File: xrd-analysis/jacob-rsm.txt
_FILEVERSION = 3
_SAMPLE =
_+SAMPLE =
_SITE = "Boise, ID"
_USER = "Boise State University"
_GONIOMETER_CODE = 21
_STAGE_CODE = 13
; Goniometer : D8 theta/theta, stage : Unknown
_SAMPLE_CHANGER_CODE = 0
_ATTACHMENTS_CODE = 0
_GONIOMETER_RADIUS = 317.5
_FIXED_DIVSLIT = 1
_FIXED_SAMPLESLIT = 0
_SOLLER_SLITS = 2
_FIXED_DETSLIT = 0
_MONOCHROMATOR = 0
; Incident beam monochromator : None
_SOLLER_SLITS_2 = N
_THIN_FILM = N
_BETA_FILTER = N
_FIXED_ANTISLIT = 0
_ANALYZER_CODE = 4
; Received beam analyzer : Göbel mirror
_DATEMEASURED = "14-Oct-2022 16:56:25"
_WL_UNIT = A
_WL1 = 1.5406
_WL2 = 1.54439
_WL3 = 1.39222
_WLRATIO = 0.5
_ANODE = Cu
_V4_INF_CREATOR = XRDWizard
_V4_INF_CREATOR_VERSION = V2.9.0.12
_V4_INF_WIZARD_VERSION = V2.9.0.12
_V4_INF_WIZARD_ADDINS = V2.9.0.12
_V4_INF_WIZARD_DOCTYPE = HRXRD
_V4_INF_SAMPLEID = GaSb - thin film on Si 100
_V4_INF_SUBSTRATE = Si
_V4_INF_LAYER = GaSb
_V4_INF_ALIGNMENT_STEPS = 101
_V4_INF_LOOP_VARINFO = 0.000000
_V4_INF_OSUSER = BrukerAdministrator
_V4_INF_USER = Boise State University
_V4_INF_SITE = Boise, ID

; Data for range 1
_DRIVE = THETA
_STEPTIME = 0.1
_STEPSIZE = 0.01
_STEPMODE = S
_START = 28.9171
_THETA = 28.9171
_2THETA = 56.7321
_KHI = 2.8548
_PHI = 0
_X = 0
_Y = 0
_Z = -0.098
_DETECTOR = 1
; Detector type : Scintillation counter
_HV = 786.2
_GAIN = 80
_LLD = 0.296
_ULD = 1.864
_DETECTORSLIT = out
_AUX1 = 0.9972
_AUX2 = 0
_AUX3 = 0
_TIMESTARTED = 6
_TEMP_RATE = -1
_TEMP_DELAY = -1
_KV = 40
_MA = 40
_RANGE_WL = 1.5406
_3DPLANE = 0
_V4_ADDITIONALDETECTOR = 0
_V4_D8_DIBNUM = 1
_V4_DETECTORNAME = "Detector 1"
_V4_TTLDETECTOR = None
_V4_DETECTORTYPE = 1
_V4_DETECTORFLAGS = 524545
_V4_DETECTORHV = 786.2
_V4_DETECTORGAIN = 80
_V4_DETECTORLLD1 = 0.296
_V4_DETECTORWW1 = 1.568
_V4_DETECTORLLD2 = 0
_V4_DETECTORWW2 = 0
_V4_DETECTORPS = 0
_V4_DETECTORDT = 0
_V4_DETECTORPILEUPTIME = 0
_V4_COUNTERS_MASK = 1
_V4_DRIVES_MASK = 0
_V4_ENCODERS_MASK = 0
_2THETACOUNTS = 1
; THETA  Cnt1_D1
  28.9171          0
  28.9271          0
  28.9371          1
  28.9471          0
  28.9571          0
  28.9671          2
  28.9771          0
  28.9871          0
  28.9971          0
  29.0071          0
  29.0171          0
  29.0271          1
  29.0371          1
  29.0471          0
  29.0571          1
  29.0671          1
  29.0771          1
  29.0871          0
  29.0971          0
  29.1071          0
  29.1171          1
  29.1271          0
  29.1371          0
  29.1471          0
  29.1571          0
  29.1671          0
  29.1771          0
  29.1871          2
  29.1971          0
  29.2071          0
  29.2171          0
  29.2271          0
  29.2371          0
  29.2471          0
  29.2571          0
  29.2671          0
  29.2771          0
  29.2871          0
  29.2971          0
  29.3071          0
  29.3171          0
  29.3271          0
  29.3371          0
  29.3471          0
  29.3571          0
  29.3671          0
  29.3771          0
  29.3871          0
  29.3971          1
  29.4071          0
  29.4171          0
  29.4271          0
  29.4371          0
  29.4471          1
  29.4571          1
  29.4671          0
  29.4771          0
  29.4871          1
  29.4971          0
  29.5071          0
  29.5171          1
  29.5271          0
  29.5371          0
  29.5471          0
  29.5571          1
  29.5671          3
  29.5771          0
  29.5871          1
  29.5971          0
  29.6071          0
  29.6171          0
  29.6271          0
  29.6371          1
  29.6471          1
  29.6571          0
  29.6671          0
  29.6771          0
  29.6871          0
  29.6971          0
  29.7071          0
  29.7171          0
  29.7271          1
  29.7371          2
  29.7471          0
  29.7571          1
  29.7671          1
  29.7771          1
  29.7871          0
  29.7971          2
  29.8071          2
  29.8171          0
  29.8271          0
  29.8371          0
  29.8471          0
  29.8571          0
  29.8671          1
  29.8771          1
  29.8871          1
  29.8971          0
  29.9071          0
  29.9171          0
  29.9271          1
  29.9371          0
  29.9471          0
  29.9571          0
  29.9671          2
  29.9771          0
  29.9871          0
  29.9971          1
  30.0071          0
  30.0171          0
  30.0271          0
  30.0371          0
  30.0471          0
  30.0571          1
  30.0671          0
  30.0771          0
  30.0871          0
  30.0971          2
  30.1071          0
  30.1171          0
  30.1271          1
  30.1371          0
  30.1471          0
  30.1571          0
  30.1671          0
  30.1771          1
  30.1871          2
  30.1971          0
  30.2071          1
  30.2171          0
  30.2271          0
  30.2371          0
  30.2471          0
  30.2571          0
  30.2671          1
  30.2771          1
  30.2871          1
  30.2971          1
  30.3071          1
  30.3171          0
  30.3271          0
  30.3371          0
  30.3471          1
  30.3571          0
  30.3671          1
  30.3771          1
  30.3871          1
  30.3971          0
  30.4071          0
  30.4171          0
  30.4271          2
  30.4371          0
  30.4471          0
  30.4571          0
  30.4671          0
  30.4771          0
  30.4871          2
  30.4971          0
  30.5071          0
  30.5171          0
  30.5271          0
  30.5371          0
  30.5471          1
  30.5571          0
  30.5671          0
  30.5771          2
  30.5871          1
  30.5971          1
  30.6071          1
  30.6171          0
  30.6271          0
  30.6371          0
  30.6471          1
  30.6571          3
  30.6671          1
  30.6771          0
  30.6871          1
  30.6971          2
  30.7071          0
  30.7171          0
  30.7271          0
  30.7371          1
  30.7471          0
  30.7571          2
  30.7671          2
  30.7771          0
  30.7871          3
  30.7971          0
  30.8071          0
  30.8171          0
  30.8271          2
  30.8371          0
  30.8471          0
  30.8571          1
  30.8671          4
  30.8771          1
  30.8871          0
  30.8971          3
  30.9071          1
  30.9171          0
  30.9271          1
  30.9371          0
  30.9471          1
  30.9571          0
  30.9671          2
  30.9771          0
  30.9871          2
  30.9971          1
  31.0071          1
  31.0171          0
  31.0271          1
  31.0371          3
  31.0471          0
  31.0571          2
  31.0671          1
  31.0771          1
  31.0871          2
  31.0971          1
  31.1071          1
  31.1171          0
  31.1271          0
  31.1371          0
  31.1471          0
  31.1571          2
  31.1671          2
  31.1771          1
  31.1871          1
  31.1971          1
  31.2071          0
  31.2171          0
  31.2271          0
  31.2371          0
  31.2471          1
  31.2571          0
  31.2671          0
  31.2771          0
  31.2871          0
  31.2971          0
  31.3071          0
  31.3171          2
  31.3271          0
  31.3371          3
  31.3471          0
  31.3571          0
  31.3671          1
  31.3771          2
  31.3871          0
  31.3971          1
  31.4071          1
  31.4171          0
  31.4271          2
  31.4371          1
  31.4471          0
  31.4571          1
  31.4671          0
  31.4771          3
  31.4871          0
  31.4971          0
  31.5071          2
  31.5171          1
  31.5271          1
  31.5371          1
  31.5471          0
  31.5571          1
  31.5671          0
  31.5771          0
  31.5871          0
  31.5971          0
  31.6071          0
  31.6171          1
  31.6271          1
  31.6371          0
  31.6471          0
  31.6571          0
  31.6671          0
  31.6771          0
  31.6871          0
  31.6971          0
  31.7071          0
  31.7171          1
  31.7271          0
  31.7371          0
  31.7471          2
  31.7571          0
  31.7671          0
  31.7771          0
  31.7871          0
  31.7971          0
  31.8071          1
  31.8171          0
  31.8271          0
  31.8371          0
  31.8471          2
  31.8571          0
  31.8671          1
  31.8771          0
  31.8871          0
  31.8971          0
  31.9071          1
  31.9171          1
  31.9271          0
  31.9371          0
  31.9471          0
  31.9571          2
  31.9671          1
  31.9771          0
  31.9871          0
  31.9971          1
  32.0071          1
  32.0171          0
  32.0271          0
  32.0371          0
  32.0471          0
  32.0571          1
  32.0671          0
  32.0771          1
  32.0871          0
  32.0971          1
  32.1071          0
  32.1171          0
  32.1271          1
  32.1371          0
  32.1471          0
  32.1571          0
  32.1671          0
  32.1771          0
  32.1871          0
  32.1971          1
  32.2071          1
  32.2171          0
  32.2271          0
  32.2371          0
  32.2471          0
  32.2571          0
  32.2671          0
  32.2771          3
  32.2871          1
  32.2971          0
  32.3071          0
  32.3171          0
  32.3271          1
  32.3371          2
  32.3471          0
  32.3571          1
  32.3671          0
  32.3771          0
  32.3871          0
  32.3971          0
  32.4071          0
  32.4171          0
  32.4271          0
  32.4371          1
  32.4471          0
  32.4571          0
  32.4671          0
  32.4771          0
  32.4871          0
  32.4971          1
  32.5071          1
  32.5171          1
  32.5271          1
  32.5371          1
  32.5471          2
  32.5571          1
  32.5671          0
  32.5771          0
  32.5871          0
  32.5971          0
  32.6071          1
  32.6171          0
  32.6271          1
  32.6371          0
  32.6471          1
  32.6571          0
  32.6671          0
  32.6771          0
  32.6871          0
  32.6971          1
  32.7071          0
  32.7171          0
  32.7271          0
  32.7371          1
  32.7471          0
  32.7571          0
  32.7671          0
  32.7771          0
  32.7871          0
  32.7971          0
  32.8071          0
  32.8171          0
  32.8271          0
  32.8371          0
  32.8471          0
  32.8571          1
  32.8671          0
  32.8771          1
  32.8871          0
  32.8971          0
  32.9071          0
  32.9171          1
  32.9271          2
  32.9371          1
  32.9471          1
  32.9571          1
  32.9671          0
  32.9771          0
  32.9871          0
  32.9971          0
  33.0071          0
  33.0171          1
  33.0271          1
  33.0371          0
  33.0471          0
  33.0571          0
  33.0671          1
  33.0771          0
  33.0871          1
  33.0971          1
  33.1071          0
  33.1171          0
  33.1271          0
  33.1371          0
  33.1471          0
  33.1571          0
  33.1671          1
  33.1771          0
  33.1871          2
  33.1971          1
  33.2071          1
  33.2171          0
  33.2271          1
  33.2371          0
  33.2471          1
  33.2571          0
  33.2671          0
  33.2771          0
  33.2871          0
  33.2971          1
  33.3071          0
  33.3171          0
  33.3271          0
  33.3371          1
  33.3471          0
  33.3571          1
  33.3671          1
  33.3771          0
  33.3871          0
  33.3971          0
  33.4071          0
  33.4171          1
  33.4271          0
  33.4371          0
  33.4471          0
  33.4571          0
  33.4671          1
  33.4771          0
  33.4871          0
  33.4971          0
  33.5071          0
  33.5171          0
  33.5271          0
  33.5371          0
  33.5471          1
  33.5571          0
  33.5671          0
  33.5771          0
  33.5871          0
  33.5971          0
  33.6071          1
  33.6171          1
  33.6271          0
  33.6371          0
  33.6471          1
  33.6571          0
  33.6671          0
  33.6771          0
  33.6871          1
  33.6971          0
  33.7071          1
  33.7171          0
  33.7271          1
  33.7371          0
  33.7471          1
  33.7571          1
  33.7671          0
  33.7771          0
  33.7871          0
  33.7971          0
  33.8071          0
  33.8171          1
  33.8271          0
  33.8371          0
  33.8471          0
  33.8571          1
  33.8671          0
  33.8771          0
  33.8871          0
  33.8971          1
  33.9071          1
  33.9171          0
  33.9271          0
  33.9371          1
  33.9471          0
  33.9571          0
  33.9671          1
  33.9771          1
  33.9871          0
  33.9971          0
  34.0071          0
  34.0171          1
  34.0271          0
  34.0371          0
  34.0471          0
  34.0571          0
  34.0671          0
  34.0771          0
  34.0871          0
  34.0971          0
  34.1071          1
  34.1171          0
  34.1271          0
  34.1371          0
  34.1471          0
  34.1571          0
  34.1671          1
  34.1771          1
  34.1871          0
  34.1971          1
  34.2071          0
  34.2171          0
  34.2271          2
  34.2371          0
  34.2471          0
  34.2571          0
  34.2671          1
  34.2771          0
  34.2871          3
  34.2971          1
  34.3071          0
  34.3171          0
  34.3271          2
  34.3371          1
  34.3471          0
  34.3571          1
  34.3671          0
  34.3771          1
  34.3871          0
  34.3971          1
  34.4071          3
  34.4171          0
  34.4271          0
  34.4371          0
  34.4471          0
  34.4571          0
  34.4671          1
  34.4771          0
  34.4871          0
  34.4971          0
  34.5071          1
  34.5171          0
  34.5271          0
  34.5371          0
  34.5471          1
  34.5571          1
  34.5671          0
  34.5771          0
  34.5871          0
  34.5971          0
  34.6071          0
  34.6171          1
  34.6271          1
  34.6371          0
  34.6471          0
  34.6571          1
  34.6671          0
  34.6771          2
  34.6871          0
  34.6971          0
  34.7071          0
  34.7171          0
  34.7271          0
  34.7371          2
  34.7471          0
  34.7571          0
  34.7671          0
  34.7771          2
  34.7871          1
  34.7971          1
  34.8071          1
  34.8171          0
  34.8271          1
  34.8371          1
  34.8471          0
  34.8571          0
  34.8671          0
  34.8771          0
  34.8871          1
  34.8971          1
  34.9071          0
  34.9171          1
  34.9271          0
  34.9371          0
  34.9471          1
  34.9571          1
  34.9671          0
  34.9771          0
  34.9871          0
  34.9971          1
  35.0071          2
  35.0171          1
  35.0271          1
  35.0371          0
  35.0471          0
  35.0571          0
  35.0671          1
  35.0771          0
  35.0871          0
  35.0971          0
  35.1071          0
  35.1171          0
  35.1271          1
  35.1371          0
  35.1471          0
  35.1571          2
  35.1671          0
  35.1771          0
  35.1871          1
  35.1971          0
  35.2071          0
  35.2171          0
  35.2271          0
  35.2371          1
  35.2471          1
  35.2571          1
  35.2671          0
  35.2771          0
  35.2871          1
  35.2971          0
  35.3071          0
  35.3171          0
  35.3271          1
  35.3371          0
  35.3471          1
  35.3571          1
  35.3671          1
  35.3771          0
  35.3871          1
  35.3971          1
  35.4071          1
  35.4171          0
  35.4271          0
  35.4371          1
  35.4471          0
  35.4571          2
  35.4671          0
  35.4771          0
  35.4871          0
  35.4971          0
  35.5071          0
  35.5171          0
  35.5271          1
  35.5371          0
  35.5471          1
  35.5571          0
  35.5671          0

; Data for range 2
_DRIVE = THETA
_STEPTIME = 0.1
_STEPSIZE = 0.01
_STEPMODE = S
_START = 28.9171
_THETA = 28.9171
_2THETA = 56.742
_KHI = 2.8548
_PHI = 0
_X = 0
_Y = 0
_Z = -0.098
_DETECTOR = 1
; Detector type : Scintillation counter
_HV = 786.2
_GAIN = 80
_LLD = 0.296
_ULD = 1.864
_DETECTORSLIT = out
_AUX1 = 0.9972
_AUX2 = 0
_AUX3 = 0
_TIMESTARTED = 118
_TEMP_RATE = -1
_TEMP_DELAY = -1
_KV = 40
_MA = 40
_RANGE_WL = 1.5406
_3DPLANE = 0
_V4_ADDITIONALDETECTOR = 0
_V4_D8_DIBNUM = 1
_V4_DETECTORNAME = "Detector 1"
_V4_TTLDETECTOR = None
_V4_DETECTORTYPE = 1
_V4_DETECTORFLAGS = 524545
_V4_DETECTORHV = 786.2
_V4_DETECTORGAIN = 80
_V4_DETECTORLLD1 = 0.296
_V4_DETECTORWW1 = 1.568
_V4_DETECTORLLD2 = 0
_V4_DETECTORWW2 = 0
_V4_DETECTORPS = 0
_V4_DETECTORDT = 0
_V4_DETECTORPILEUPTIME = 0
_V4_COUNTERS_MASK = 1
_V4_DRIVES_MASK = 0
_V4_ENCODERS_MASK = 0
_2THETACOUNTS = 1
; THETA  Cnt1_D1
  28.9171          0
  28.9271          0
  28.9371          0
  28.9471          0
  28.9571          0
  28.9671          1
  28.9771          2
  28.9871          0
  28.9971          1
  29.0071          1
  29.0171          0
  29.0271          0
  29.0371          0
  29.0471          1
  29.0571          0
  29.0671          1
  29.0771          0
  29.0871          0
  29.0971          1
  29.1071          0
  29.1171          0
  29.1271          0
  29.1371          0
  29.1471          0
  29.1571          0
  29.1671          0
  29.1771          0
  29.1871          0
  29.1971          0
  29.2071          0
  29.2171          1
  29.2271          0
  29.2371          1
  29.2471          1
  29.2571          0
  29.2671          0
  29.2771          0
  29.2871          0
  29.2971          0
  29.3071          0
  29.3171          0
  29.3271          0
  29.3371          1
  29.3471          1
  29.3571          0
  29.3671          0
  29.3771          0
  29.3871          0
  29.3971          0
  29.4071          0
  29.4171          1
  29.4271          1
  29.4371          1
  29.4471          0
  29.4571          0
  29.4671          0
  29.4771          0
  29.4871          0
  29.4971          1
  29.5071          0
  29.5171          0
  29.5271          0
  29.5371          0
  29.5471          0
  29.5571          2
  29.5671          0
  29.5771          1
  29.5871          0
  29.5971          0
  29.6071          0
  29.6171          1
  29.6271          0
  29.6371          1
  29.6471          1
  29.6571          0
  29.6671          0
  29.6771          0
  29.6871          1
  29.6971          0
  29.7071          0
  29.7171          0
  29.7271          0
  29.7371          1
  29.7471          0
  29.7571          0
  29.7671          0
  29.7771          0
  29.7871          2
  29.7971          0
  29.8071          0
  29.8171          1
  29.8271          0
  29.8371          0
  29.8471          0
  29.8571          0
  29.8671          1
  29.8771          0
  29.8871          0
  29.8971          0
  29.9071          1
  29.9171          0
  29.9271          0
  29.9371          0
  29.9471          1
  29.9571          0
  29.9671          2
  29.9771          0
  29.9871          0
  29.9971          1
  30.0071          0
  30.0171          1
  30.0271          0
  30.0371          1
  30.0471          0
  30.0571          1
  30.0671          1
  30.0771          0
  30.0871          0
  30.0971          0
  30.1071          0
  30.1171          1
  30.1271          0
  30.1371          0
  30.1471          0
  30.1571          0
  30.1671          0
  30.1771          1
  30.1871          0
  30.1971          1
  30.2071          0
  30.2171          0
  30.2271          0
  30.2371          1
  30.2471          0
  30.2571          0
  30.2671          2
  30.2771          0
  30.2871          0
  30.2971          0
  30.3071          1
  30.3171          0
  30.3271          0
  30.3371          0
  30.3471          0
  30.3571          2
  30.3671          2
  30.3771          1
  30.3871          0
  30.3971          1
  30.4071          1
  30.4171          0
  30.4271          0
  30.4371          0
  30.4471          0
  30.4571          2
  30.4671          0
  30.4771          0
  30.4871          1
  30.4971          0
  30.5071          0
  30.5171          0
  30.5271          1
  30.5371          0
  30.5471          0
  30.5571          1
  30.5671          1
  30.5771          0
  30.5871          1
  30.5971          0
  30.6071          0
  30.6171          0
  30.6271          2
  30.6371          0
  30.6471          0
  30.6571          0
  30.6671          0
  30.6771          1
  30.6871          1
  30.6971          1
  30.7071          0
  30.7171          0
  30.7271          0
  30.7371          1
  30.7471          3
  30.7571          1
  30.7671          1
  30.7771          1
  30.7871          3
  30.7971          2
  30.8071          0
  30.8171          2
  30.8271          0
  30.8371          0
  30.8471          1
  30.8571          0
  30.8671          2
  30.8771          2
  30.8871          0
  30.8971          5
  30.9071          2
  30.9171          2
  30.9271          2
  30.9371          4
  30.9471          2
  30.9571          4
  30.9671          2
  30.9771          0
  30.9871          1
  30.9971          0
  31.0071          1
  31.0171          4
  31.0271          4
  31.0371          0
  31.0471          2
  31.0571          1
  31.0671          1
  31.0771          4
  31.0871          1
  31.0971          0
  31.1071          1
  31.1171          1
  31.1271          0
  31.1371          2
  31.1471          0
  31.1571          0
  31.1671          2
  31.1771          0
  31.1871          4
  31.1971          1
  31.2071          1
  31.2171          0
  31.2271          0
  31.2371          0
  31.2471          1
  31.2571          1
  31.2671          1
  31.2771          2
  31.2871          1
  31.2971          0
  31.3071          0
  31.3171          0
  31.3271          0
  31.3371          1
  31.3471          0
  31.3571          0
  31.3671          0
  31.3771          1
  31.3871          1
  31.3971          0
  31.4071          1
  31.4171          0
  31.4271          1
  31.4371          0
  31.4471          0
  31.4571          0
  31.4671          1
  31.4771          1
  31.4871          0
  31.4971          0
  31.5071          0
  31.5171          2
  31.5271          0
  31.5371          0
  31.5471          0
  31.5571          2
  31.5671          2
  31.5771          0
  31.5871          0
  31.5971          1
  31.6071          0
  31.6171          0
  31.6271          0
  31.6371          2
  31.6471          0
  31.6571          0
  31.6671          0
  31.6771          0
  31.6871          1
  31.6971          0
  31.7071          1
  31.7171          0
  31.7271          1
  31.7371          0
  31.7471          0
  31.7571          0
  31.7671          0
  31.7771          0
  31.7871          0
  31.7971          0
  31.8071          0
  31.8171          1
  31.8271          0
  31.8371          1
  31.8471          1
  31.8571          1
  31.8671          0
  31.8771          0
  31.8871          0
  31.8971          0
  31.9071          1
  31.9171          0
  31.9271          0
  31.9371          1
  31.9471          0
  31.9571          0
  31.9671          0
  31.9771          0
  31.9871          0
  31.9971          1
  32.0071          1
  32.0171          0
  32.0271          0
  32.0371          0
  32.0471          1
  32.0571          0
  32.0671          0
  32.0771          0
  32.0871          0
  32.0971          0
  32.1071          1
  32.1171          0
  32.1271          0
  32.1371          0
  32.1471          0
  32.1571          1
  32.1671          0
  32.1771          0
  32.1871          0
  32.1971          1
  32.2071          0
  32.2171          1
  32.2271          0
  32.2371          2
  32.2471          0
  32.2571          1
  32.2671          1
  32.2771          0
  32.2871          0
  32.2971          0
  32.3071          0
  32.3171          0
  32.3271          0
  32.3371          1
  32.3471          2
  32.3571          1
  32.3671          0
  32.3771          1
  32.3871          0
  32.3971          2
  32.4071          0
  32.4171          0
  32.4271          0
  32.4371          1
  32.4471          0
  32.4571          1
  32.4671          0
  32.4771          0
  32.4871          1
  32.4971          0
  32.5071          0
  32.5171          1
  32.5271          0
  32.5371          1
  32.5471          0
  32.5571          1
  32.5671          1
  32.5771          1
  32.5871          1
  32.5971          2
  32.6071          0
  32.6171          0
  32.6271          0
  32.6371          0
  32.6471          1
  32.6571          1
  32.6671          0
  32.6771          0
  32.6871          0
  32.6971          0
  32.7071          1
  32.7171          0
  32.7271          0
  32.7371          0
  32.7471          1
  32.7571          1
  32.7671          0
  32.7771          1
  32.7871          0
  32.7971          0
  32.8071          0
  32.8171          0
  32.8271          0
  32.8371          0
  32.8471          0
  32.8571          0
  32.8671          0
  32.8771          0
  32.8871          0
  32.8971          1
  32.9071          0
  32.9171          0
  32.9271          0
  32.9371          0
  32.9471          1
  32.9571          0
  32.9671          0
  32.9771          0
  32.9871          0
  32.9971          0
  33.0071          0
  33.0171          2
  33.0271          0
  33.0371          0
  33.0471          0
  33.0571          0
  33.0671          0
  33.0771          1
  33.0871          0
  33.0971          0
  33.1071          0
  33.1171          1
  33.1271          0
  33.1371          0
  33.1471          0
  33.1571          0
  33.1671          1
  33.1771          0
  33.1871          0
  33.1971          0
  33.2071          1
  33.2171          1
  33.2271          0
  33.2371          1
  33.2471          0
  33.2571          1
  33.2671          1
  33.2771          0
  33.2871          0
  33.2971          0
  33.3071          0
  33.3171          0
  33.3271          0
  33.3371          0
  33.3471          0
  33.3571          0
  33.3671          1
  33.3771          0
  33.3871          0
  33.3971          0
  33.4071          0
  33.4171          0
  33.4271          0
  33.4371          0
  33.4471          0
  33.4571          1
  33.4671          0
  33.4771          2
  33.4871          1
  33.4971          0
  33.5071          0
  33.5171          0
  33.5271          1
  33.5371          0
  33.5471          0
  33.5571          0
  33.5671          1
  33.5771          0
  33.5871          1
  33.5971          0
  33.6071          0
  33.6171          1
  33.6271          0
  33.6371          0
  33.6471          0
  33.6571          1
  33.6671          0
  33.6771          1
  33.6871          0
  33.6971          0
  33.7071          1
  33.7171          0
  33.7271          1
  33.7371          0
  33.7471          1
  33.7571          0
  33.7671          1
  33.7771          0
  33.7871          0
  33.7971          0
  33.8071          0
  33.8171          1
  33.8271          0
  33.8371          0
  33.8471          0
  33.8571          0
  33.8671          1
  33.8771          0
  33.8871          0
  33.8971          1
  33.9071          1
  33.9171          0
  33.9271          1
  33.9371          0
  33.9471          0
  33.9571          0
  33.9671          1
  33.9771          0
  33.9871          0
  33.9971          0
  34.0071          0
  34.0171          0
  34.0271          0
  34.0371          0
  34.0471          0
  34.0571          0
  34.0671          0
  34.0771          0
  34.0871          0
  34.0971          1
  34.1071          0
  34.1171          0
  34.1271          1
  34.1371          0
  34.1471          1
  34.1571          0
  34.1671          1
  34.1771          1
  34.1871          0
  34.1971          1
  34.2071          0
  34.2171          0
  34.2271          0
  34.2371          0
  34.2471          0
  34.2571          0
  34.2671          0
  34.2771          1
  34.2871          0
  34.2971          0
  34.3071          0
  34.3171          1
  34.3271          0
  34.3371          0
  34.3471          0
  34.3571          0
  34.3671          0
  34.3771          1
  34.3871          2
  34.3971          0
  34.4071          0
  34.4171          0
  34.4271          0
  34.4371          0
  34.4471          0
  34.4571          0
  34.4671          0
  34.4771          0
  34.4871          1
  34.4971          0
  34.5071          0
  34.5171          1
  34.5271          0
  34.5371          1
  34.5471          2
  34.5571          0
  34.5671          0
  34.5771          0
  34.5871          0
  34.5971          1
  34.6071          1
  34.6171          2
  34.6271          0
  34.6371          0
  34.6471          1
  34.6571          0
  34.6671          0
  34.6771          0
  34.6871          0
  34.6971          0
  34.7071          0
  34.7171          0
  34.7271          0
  34.7371          0
  34.7471          0
  34.7571          0
  34.7671          0
  34.7771          1
  34.7871          0
  34.7971          1
  34.8071          0
  34.8171          0
  34.8271          0
  34.8371          0
  34.8471          0
  34.8571          2
  34.8671          2
  34.8771          1
  34.8871          0
  34.8971          0
  34.9071          0
  34.9171          0
  34.9271          1
  34.9371          0
  34.9471          0
  34.9571          0
  34.9671          0
  34.9771          2
  34.9871          0
  34.9971          0
  35.0071          2
  35.0171          1
  35.0271          0
  35.0371          0
  35.0471          0
  35.0571          1
  35.0671          1
  35.0771          0
  35.0871          0
  35.0971          1
  35.1071          0
  35.1171          1
  35.1271          0
  35.1371          0
  35.1471          1
  35.1571          0
  35.1671          0
  35.1771          0
  35.1871          0
  35.1971          1
  35.2071          2
  35.2171          1
  35.2271          0
  35.2371          0
  35.2471          0
  35.2571          1
  35.2671          0
  35.2771          0
  35.2871          0
  35.2971          1
  35.3071          1
  35.3171          0
  35.3271          2
  35.3371          0
  35.3471          1
  35.3571          0
  35.3671          0
  35.3771          0
  35.3871          1
  35.3971          1
  35.4071          1
  35.4171          0
  35.4271          0
  35.4371          0
  35.4471          1
  35.4571          0
  35.4671          1
  35.4771          2
  35.4871          1
  35.4971          0
  35.5071          0
  35.5171          0
  35.5271          0
  35.5371          0
  35.5471          0
  35.5571          0
  35.5671          1

; Data for range 3
_DRIVE = THETA
_STEPTIME = 0.1
_STEPSIZE = 0.01
_STEPMODE = S
_START = 28.9171
_THETA = 28.9171
_2THETA = 56.752
_KHI = 2.8548
_PHI = 0
_X = 0
_Y = 0
_Z = -0.098
_DETECTOR = 1
; Detector type : Scintillation counter
_HV = 786.2
_GAIN = 80
_LLD = 0.296
_ULD = 1.864
_DETECTORSLIT = out
_AUX1 = 0.9972
_AUX2 = 0
_AUX3 = 0
_TIMESTARTED = 229
_TEMP_RATE = -1
_TEMP_DELAY = -1
_KV = 40
_MA = 40
_RANGE_WL = 1.5406
_3DPLANE = 0
_V4_ADDITIONALDETECTOR = 0
_V4_D8_DIBNUM = 1
_V4_DETECTORNAME = "Detector 1"
_V4_TTLDETECTOR = None
_V4_DETECTORTYPE = 1
_V4_DETECTORFLAGS = 524545
_V4_DETECTORHV = 786.2
_V4_DETECTORGAIN = 80
_V4_DETECTORLLD1 = 0.296
_V4_DETECTORWW1 = 1.568
_V4_DETECTORLLD2 = 0
_V4_DETECTORWW2 = 0
_V4_DETECTORPS = 0
_V4_DETECTORDT = 0
_V4_DETECTORPILEUPTIME = 0
_V4_COUNTERS_MASK = 1
_V4_DRIVES_MASK = 0
_V4_ENCODERS_MASK = 0
_2THETACOUNTS = 1
; THETA  Cnt1_D1
  28.9171          0
  28.9271          0
  28.9371          0
  28.9471          0
  28.9571          1
  28.9671          0
  28.9771          0
  28.9871          0
  28.9971          0
  29.0071          0
  29.0171          0
  29.0271          0
  29.0371          0
  29.0471          0
  29.0571          1
  29.0671          0
  29.0771          0
  29.0871          1
  29.0971          0
  29.1071          1
  29.1171          0
  29.1271          0
  29.1371          1
  29.1471          0
  29.1571          0
  29.1671          0
  29.1771          1
  29.1871          1
  29.1971          0
  29.2071          0
  29.2171          1
  29.2271          0
  29.2371          0
  29.2471          1
  29.2571          0
  29.2671          2
  29.2771          0
  29.2871          0
  29.2971          0
  29.3071          2
  29.3171          0
  29.3271          0
  29.3371          0
  29.3471          0
  29.3571          1
  29.3671          0
  29.3771          1
  29.3871          0
  29.3971          0
  29.4071          0
  29.4171          1
  29.4271          0
  29.4371          0
  29.4471          0
  29.4571          1
  29.4671          1
  29.4771          2
  29.4871          0
  29.4971          0
  29.5071          0
  29.5171          0
  29.5271          0
  29.5371          0
  29.5471          0
  29.5571          0
  29.5671          2
  29.5771          0
  29.5871          0
  29.5971          0
  29.6071          1
  29.6171          1
  29.6271          0
  29.6371          2
  29.6471          0
  29.6571          1
  29.6671          1
  29.6771          0
  29.6871          1
  29.6971          0
  29.7071          0
  29.7171          0
  29.7271          1
  29.7371          1
  29.7471          0
  29.7571          0
  29.7671          0
  29.7771          0
  29.7871          2
  29.7971          0
  29.8071          1
  29.8171          0
  29.8271          1
  29.8371          0
  29.8471          0
  29.8571          0
  29.8671          1
  29.8771          1
  29.8871          0
  29.8971          0
  29.9071          2
  29.9171          0
  29.9271          1
  29.9371          0
  29.9471          0
  29.9571          0
  29.9671          0
  29.9771          1
  29.9871          0
  29.9971          0
  30.0071          0
  30.0171          0
  30.0271          0
  30.0371          1
  30.0471          2
  30.0571          0
  30.0671          0
  30.0771          0
  30.0871          1
  30.0971          0
  30.1071          1
  30.1171          1
  30.1271          1
  30.1371          0
  30.1471          0
  30.1571          1
  30.1671          1
  30.1771          2
  30.1871          0
  30.1971          0
  30.2071          0
  30.2171          0
  30.2271          1
  30.2371          1
  30.2471          0
  30.2571          0
  30.2671          1
  30.2771          0
  30.2871          0
  30.2971          1
  30.3071          2
  30.3171          1
  30.3271          0
  30.3371          1
  30.3471          2
  30.3571          1
  30.3671          0
  30.3771          0
  30.3871          0
  30.3971          0
  30.4071          1
  30.4171          0
  30.4271          0
  30.4371          0
  30.4471          1
  30.4571          0
  30.4671          1
  30.4771          0
  30.4871          0
  30.4971          2
  30.5071          0
  30.5171          0
  30.5271          0
  30.5371          1
  30.5471          0
  30.5571          1
  30.5671          0
  30.5771          1
  30.5871          0
  30.5971          1
  30.6071          0
  30.6171          1
  30.6271          1
  30.6371          0
  30.6471          3
  30.6571          0
  30.6671          1
  30.6771          3
  30.6871          1
  30.6971          0
  30.7071          2
  30.7171          2
  30.7271          1
  30.7371          0
  30.7471          3
  30.7571          0
  30.7671          2
  30.7771          0
  30.7871          1
  30.7971          2
  30.8071          0
  30.8171          2
  30.8271          1
  30.8371          1
  30.8471          0
  30.8571          2
  30.8671          2
  30.8771          2
  30.8871          1
  30.8971          1
  30.9071          1
  30.9171          3
  30.9271          0
  30.9371          0
  30.9471          2
  30.9571          1
  30.9671          0
  30.9771          3
  30.9871          0
  30.9971          1
  31.0071          2
  31.0171          2
  31.0271          0
  31.0371          4
  31.0471          0
  31.0571          0
  31.0671          1
  31.0771          0
  31.0871          0
  31.0971          1
  31.1071          1
  31.1171          0
  31.1271          1
  31.1371          0
  31.1471          0
  31.1571          3
  31.1671          0
  31.1771          2
  31.1871          0
  31.1971          1
  31.2071          1
  31.2171          1
  31.2271          0
  31.2371          0
  31.2471          0
  31.2571          1
  31.2671          0
  31.2771          1
  31.2871          2
  31.2971          2
  31.3071          0
  31.3171          1
  31.3271          1
  31.3371          0
  31.3471          1
  31.3571          1
  31.3671          0
  31.3771          0
  31.3871          0
  31.3971          0
  31.4071          2
  31.4171          0
  31.4271          0
  31.4371          2
  31.4471          3
  31.4571          0
  31.4671          0
  31.4771          1
  31.4871          2
  31.4971          1
  31.5071          2
  31.5171          0
  31.5271          1
  31.5371          0
  31.5471          0
  31.5571          0
  31.5671          0
  31.5771          0
  31.5871          0
  31.5971          0
  31.6071          0
  31.6171          1
  31.6271          1
  31.6371          0
  31.6471          3
  31.6571          1
  31.6671          0
  31.6771          0
  31.6871          0
  31.6971          0
  31.7071          0
  31.7171          2
  31.7271          0
  31.7371          1
  31.7471          0
  31.7571          0
  31.7671          0
  31.7771          0
  31.7871          0
  31.7971          2
  31.8071          0
  31.8171          1
  31.8271          0
  31.8371          0
  31.8471          0
  31.8571          1
  31.8671          0
  31.8771          0
  31.8871          0
  31.8971          0
  31.9071          1
  31.9171          1
  31.9271          0
  31.9371          2
  31.9471          1
  31.9571          0
  31.9671          0
  31.9771          0
  31.9871          0
  31.9971          0
  32.0071          0
  32.0171          2
  32.0271          4
  32.0371          0
  32.0471          1
  32.0571          1
  32.0671          1
  32.0771          0
  32.0871          0
  32.0971          1
  32.1071          0
  32.1171          0
  32.1271          0
  32.1371          0
  32.1471          0
  32.1571          0
  32.1671          0
  32.1771          0
  32.1871          0
  32.1971          1
  32.2071          0
  32.2171          1
  32.2271          1
  32.2371          0
  32.2471          0
  32.2571          1
  32.2671          0
  32.2771          0
  32.2871          0
  32.2971          0
  32.3071          2
  32.3171          1
  32.3271          0
  32.3371          0
  32.3471          0
  32.3571          1
  32.3671          0
  32.3771          0
  32.3871          1
  32.3971          0
  32.4071          1
  32.4171          1
  32.4271          0
  32.4371          1
  32.4471          0
  32.4571          0
  32.4671          0
  32.4771          0
  32.4871          0
  32.4971          1
  32.5071          1
  32.5171          0
  32.5271          0
  32.5371          0
  32.5471          0
  32.5571          1
  32.5671          2
  32.5771          1
  32.5871          1
  32.5971          1
  32.6071          0
  32.6171          0
  32.6271          0
  32.6371          0
  32.6471          0
  32.6571          0
  32.6671          0
  32.6771          0
  32.6871          0
  32.6971          0
  32.7071          0
  32.7171          0
  32.7271          2
  32.7371          0
  32.7471          0
  32.7571          0
  32.7671          0
  32.7771          0
  32.7871          0
  32.7971          2
  32.8071          1
  32.8171          3
  32.8271          1
  32.8371          1
  32.8471          0
  32.8571          0
[...]
  33.1471          0
  33.1571          0
  33.1671          0
  33.1771          0
  33.1871          0
  33.1971          0
  33.2071          0
  33.2171          0
  33.2271          0
  33.2371          0
  33.2471          0
  33.2571          0
  33.2671          1
  33.2771          1
  33.2871          0
  33.2971          0
  33.3071          0
  33.3171          0
  33.3271          0
  33.3371          1
  33.3471          0
  33.3571          1
  33.3671          0
  33.3771          1
  33.3871          0
  33.3971          0
  33.4071          2
  33.4171          0
  33.4271          0
  33.4371          0
  33.4471          1
  33.4571          1
  33.4671          0
  33.4771          0
  33.4871          2
  33.4971          0
  33.5071          0
  33.5171          1
  33.5271          1
  33.5371          1
  33.5471          1
  33.5571          0
  33.5671          1
  33.5771          0
  33.5871          0
  33.5971          0
  33.6071          0
  33.6171          1
  33.6271          1
  33.6371          1
  33.6471          0
  33.6571          0
  33.6671          0
  33.6771          0
  33.6871          1
  33.6971          0
  33.7071          1
  33.7171          0
  33.7271          0
  33.7371          0
  33.7471          0
  33.7571          1
  33.7671          0
  33.7771          1
  33.7871          0
  33.7971          0
  33.8071          0
  33.8171          0
  33.8271          0
  33.8371          0
  33.8471          0
  33.8571          2
  33.8671          1
  33.8771          0
  33.8871          1
  33.8971          0
  33.9071          2
  33.9171          0
  33.9271          1
  33.9371          0
  33.9471          0
  33.9571          0
  33.9671          0
  33.9771          1
  33.9871          1
  33.9971          0
  34.0071          1
  34.0171          0
  34.0271          0
  34.0371          0
  34.0471          0
  34.0571          0
  34.0671          2
  34.0771          1
  34.0871          1
  34.0971          0
  34.1071          1
  34.1171          0
  34.1271          0
  34.1371          0
  34.1471          0
  34.1571          1
  34.1671          2
  34.1771          0
  34.1871          0
  34.1971          0
  34.2071          0
  34.2171          0
  34.2271          1
  34.2371          0
  34.2471          0
  34.2571          0
  34.2671          0
  34.2771          1
  34.2871          1
  34.2971          1
  34.3071          0
  34.3171          0
  34.3271          3
  34.3371          1
  34.3471          0
  34.3571          1
  34.3671          0
  34.3771          0
  34.3871          1
  34.3971          1
  34.4071          0
  34.4171          0
  34.4271          2
  34.4371          0
  34.4471          1
  34.4571          0
  34.4671          0
  34.4771          0
  34.4871          0
  34.4971          0
  34.5071          0
  34.5171          0
  34.5271          0
  34.5371          1
  34.5471          0
  34.5571          0
  34.5671          0
  34.5771          0
  34.5871          0
  34.5971          0
  34.6071          1
  34.6171          1
  34.6271          0
  34.6371          2
  34.6471          0
  34.6571          0
  34.6671          2
  34.6771          2
  34.6871          1
  34.6971          0
  34.7071          1
  34.7171          1
  34.7271          0
  34.7371          0
  34.7471          0
  34.7571          1
  34.7671          0
  34.7771          0
  34.7871          1
  34.7971          0
  34.8071          0
  34.8171          1
  34.8271          0
  34.8371          1
  34.8471          0
  34.8571          0
  34.8671          0
  34.8771          0
  34.8871          1
  34.8971          0
  34.9071          0
  34.9171          0
  34.9271          0
  34.9371          0
  34.9471          1
  34.9571          1
  34.9671          0
  34.9771          0
  34.9871          2
  34.9971          0
  35.0071          1
  35.0171          1
  35.0271          2
  35.0371          0
  35.0471          0
  35.0571          0
  35.0671          0
  35.0771          0
  35.0871          1
  35.0971          0
  35.1071          0
  35.1171          1
  35.1271          0
  35.1371          1
  35.1471          0
  35.1571          0
  35.1671          0
  35.1771          0
  35.1871          0
  35.1971          0
  35.2071          1
  35.2171          1
  35.2271          0
  35.2371          1
  35.2471          1
  35.2571          0
  35.2671          0
  35.2771          1
  35.2871          0
  35.2971          0
  35.3071          0
  35.3171          2
  35.3271          1
  35.3371          0
  35.3471          0
  35.3571          0
  35.3671          2
  35.3771          2
  35.3871          0
  35.3971          2
  35.4071          0
  35.4171          0
  35.4271          0
  35.4371          1
  35.4471          0
  35.4571          1
  35.4671          0
  35.4771          0
  35.4871          0
  35.4971          0
  35.5071          0
  35.5171          0
  35.5271          0
  35.5371          0
  35.5471          0
  35.5571          1
  35.5671          0

; Data for range 161
_DRIVE = THETA
_STEPTIME = 0.1
_STEPSIZE = 0.01
_STEPMODE = S
_START = 28.9171
_THETA = 28.9171
_2THETA = 58.332
_KHI = 2.8548
_PHI = 0
_X = 0
_Y = 0
_Z = -0.098
_DETECTOR = 1
; Detector type : Scintillation counter
_HV = 786.2
_GAIN = 80
_LLD = 0.296
_ULD = 1.864
_DETECTORSLIT = out
_AUX1 = 0.9972
_AUX2 = 0
_AUX3 = 0
_TIMESTARTED = 1.785e+004
_TEMP_RATE = -1
_TEMP_DELAY = -1
_KV = 40
_MA = 40
_RANGE_WL = 1.5406
_3DPLANE = 0
_V4_ADDITIONALDETECTOR = 0
_V4_D8_DIBNUM = 1
_V4_DETECTORNAME = "Detector 1"
_V4_TTLDETECTOR = None
_V4_DETECTORTYPE = 1
_V4_DETECTORFLAGS = 524545
_V4_DETECTORHV = 786.2
_V4_DETECTORGAIN = 80
_V4_DETECTORLLD1 = 0.296
_V4_DETECTORWW1 = 1.568
_V4_DETECTORLLD2 = 0
_V4_DETECTORWW2 = 0
_V4_DETECTORPS = 0
_V4_DETECTORDT = 0
_V4_DETECTORPILEUPTIME = 0
_V4_COUNTERS_MASK = 1
_V4_DRIVES_MASK = 0
_V4_ENCODERS_MASK = 0
_2THETACOUNTS = 1
; THETA  Cnt1_D1
  28.9171          1
  28.9271          0
  28.9371          0
  28.9471          1
  28.9571          0
  28.9671          0
  28.9771          0
  28.9871          0
  28.9971          0
  29.0071          2
  29.0171          0
  29.0271          1
  29.0371          0
  29.0471          1
  29.0571          0
  29.0671          0
  29.0771          1
  29.0871          0
  29.0971          0
  29.1071          0
  29.1171          0
  29.1271          0
  29.1371          1
  29.1471          0
  29.1571          1
  29.1671          1
  29.1771          0
  29.1871          0
  29.1971          0
  29.2071          1
  29.2171          1
  29.2271          0
  29.2371          0
  29.2471          0
  29.2571          0
  29.2671          0
  29.2771          0
  29.2871          0
  29.2971          0
  29.3071          0
  29.3171          0
  29.3271          0
  29.3371          0
  29.3471          1
  29.3571          0
  29.3671          2
  29.3771          0
  29.3871          0
  29.3971          1
  29.4071          0
  29.4171          0
  29.4271          0
  29.4371          2
  29.4471          0
  29.4571          0
  29.4671          2
  29.4771          0
  29.4871          1
  29.4971          0
  29.5071          0
  29.5171          1
  29.5271          1
  29.5371          0
  29.5471          1
  29.5571          0
  29.5671          0
  29.5771          2
  29.5871          1
  29.5971          0
  29.6071          0
  29.6171          1
  29.6271          0
  29.6371          0
  29.6471          1
  29.6571          2
  29.6671          1
  29.6771          0
  29.6871          0
  29.6971          1
  29.7071          0
  29.7171          0
  29.7271          1
  29.7371          0
  29.7471          1
  29.7571          0
  29.7671          0
  29.7771          1
  29.7871          0
  29.7971          0
  29.8071          0
  29.8171          1
  29.8271          0
  29.8371          0
  29.8471          0
  29.8571          4
  29.8671          0
  29.8771          1
  29.8871          2
  29.8971          2
  29.9071          1
  29.9171          2
  29.9271          1
  29.9371          2
  29.9471          1
  29.9571          0
  29.9671          0
  29.9771          0
  29.9871          2
  29.9971          1
  30.0071          2
  30.0171          1
  30.0271          1
  30.0371          1
  30.0471          0
  30.0571          0
  30.0671          2
  30.0771          2
  30.0871          0
  30.0971          3
  30.1071          2
  30.1171          0
  30.1271          2
  30.1371          1
  30.1471          5
  30.1571          1
  30.1671          1
  30.1771          0
  30.1871          1
  30.1971          0
  30.2071          2
  30.2171          0
  30.2271          0
  30.2371          1
  30.2471          1
  30.2571          1
  30.2671          1
  30.2771          1
  30.2871          2
  30.2971          0
  30.3071          1
  30.3171          3
  30.3271          1
  30.3371          0
  30.3471          0
  30.3571          0
  30.3671          1
  30.3771          2
  30.3871          0
  30.3971          0
  30.4071          2
  30.4171          0
  30.4271          0
  30.4371          1
  30.4471          0
  30.4571          0
  30.4671          2
  30.4771          1
  30.4871          0
  30.4971          0
  30.5071          0
  30.5171          0
  30.5271          0
  30.5371          0
  30.5471          0
  30.5571          1
  30.5671          1
  30.5771          1
  30.5871          0
  30.5971          0
  30.6071          1
  30.6171          2
  30.6271          0
  30.6371          1
  30.6471          0
  30.6571          0
  30.6671          0
  30.6771          0
  30.6871          1
  30.6971          1
  30.7071          0
  30.7171          0
  30.7271          0
  30.7371          0
  30.7471          1
  30.7571          1
  30.7671          0
  30.7771          0
  30.7871          0
  30.7971          1
  30.8071          0
  30.8171          0
  30.8271          1
  30.8371          0
  30.8471          0
  30.8571          0
  30.8671          1
  30.8771          0
  30.8871          0
  30.8971          1
  30.9071          0
  30.9171          0
  30.9271          0
  30.9371          2
  30.9471          1
  30.9571          0
  30.9671          0
  30.9771          1
  30.9871          1
  30.9971          1
  31.0071          1
  31.0171          1
  31.0271          0
  31.0371          1
  31.0471          0
  31.0571          1
  31.0671          1
  31.0771          1
  31.0871          0
  31.0971          0
  31.1071          0
  31.1171          0
  31.1271          1
  31.1371          0
  31.1471          1
  31.1571          0
  31.1671          0
  31.1771          0
  31.1871          1
  31.1971          1
  31.2071          0
  31.2171          0
  31.2271          0
  31.2371          1
  31.2471          0
  31.2571          0
  31.2671          1
  31.2771          0
  31.2871          0
  31.2971          0
  31.3071          0
  31.3171          1
  31.3271          0
  31.3371          1
  31.3471          1
  31.3571          1
  31.3671          0
  31.3771          0
  31.3871          0
  31.3971          1
  31.4071          0
  31.4171          0
  31.4271          1
  31.4371          2
  31.4471          0
  31.4571          0
  31.4671          0
  31.4771          0
  31.4871          1
  31.4971          0
  31.5071          1
  31.5171          0
  31.5271          0
  31.5371          0
  31.5471          0
  31.5571          0
  31.5671          3
  31.5771          1
  31.5871          0
  31.5971          0
  31.6071          0
  31.6171          1
  31.6271          1
  31.6371          0
  31.6471          0
  31.6571          0
  31.6671          1
  31.6771          0
  31.6871          0
  31.6971          1
  31.7071          0
  31.7171          0
  31.7271          0
  31.7371          1
  31.7471          0
  31.7571          1
  31.7671          0
  31.7771          0
  31.7871          0
  31.7971          1
  31.8071          0
  31.8171          1
  31.8271          1
  31.8371          3
  31.8471          0
  31.8571          0
  31.8671          1
  31.8771          0
  31.8871          0
  31.8971          0
  31.9071          0
  31.9171          2
  31.9271          0
  31.9371          0
  31.9471          0
  31.9571          1
  31.9671          0
  31.9771          0
  31.9871          0
  31.9971          1
  32.0071          0
  32.0171          0
  32.0271          0
  32.0371          2
  32.0471          0
  32.0571          0
  32.0671          1
  32.0771          0
  32.0871          0
  32.0971          0
  32.1071          0
  32.1171          1
  32.1271          0
  32.1371          1
  32.1471          1
  32.1571          1
  32.1671          1
  32.1771          1
  32.1871          0
  32.1971          0
  32.2071          1
  32.2171          0
  32.2271          2
  32.2371          0
  32.2471          0
  32.2571          0
  32.2671          0
  32.2771          1
  32.2871          0
  32.2971          1
  32.3071          0
  32.3171          1
  32.3271          1
  32.3371          1
  32.3471          0
  32.3571          0
  32.3671          0
  32.3771          0
  32.3871          0
  32.3971          0
  32.4071          1
  32.4171          0
  32.4271          1
  32.4371          0
  32.4471          0
  32.4571          2
  32.4671          0
  32.4771          0
  32.4871          0
  32.4971          0
  32.5071          2
  32.5171          1
  32.5271          1
  32.5371          0
  32.5471          1
  32.5571          1
  32.5671          0
  32.5771          0
  32.5871          0
  32.5971          1
  32.6071          1
  32.6171          0
  32.6271          1
  32.6371          0
  32.6471          0
  32.6571          1
  32.6671          0
  32.6771          0
  32.6871          0
  32.6971          1
  32.7071          0
  32.7171          0
  32.7271          1
  32.7371          0
  32.7471          0
  32.7571          0
  32.7671          2
  32.7771          1
  32.7871          0
  32.7971          0
  32.8071          1
  32.8171          0
  32.8271          0
  32.8371          1
  32.8471          1
  32.8571          1
  32.8671          0
  32.8771          0
  32.8871          0
  32.8971          2
  32.9071          1
  32.9171          0
  32.9271          1
  32.9371          0
  32.9471          0
  32.9571          0
  32.9671          0
  32.9771          0
  32.9871          0
  32.9971          0
  33.0071          0
  33.0171          0
  33.0271          0
  33.0371          0
  33.0471          1
  33.0571          2
  33.0671          1
  33.0771          1
  33.0871          0
  33.0971          1
  33.1071          0
  33.1171          0
  33.1271          1
  33.1371          0
  33.1471          0
  33.1571          0
  33.1671          0
  33.1771          0
  33.1871          1
  33.1971          1
  33.2071          0
  33.2171          1
  33.2271          3
  33.2371          2
  33.2471          0
  33.2571          1
  33.2671          0
  33.2771          0
  33.2871          0
  33.2971          1
  33.3071          0
  33.3171          0
  33.3271          0
  33.3371          0
  33.3471          0
  33.3571          0
  33.3671          0
  33.3771          0
  33.3871          1
  33.3971          2
  33.4071          0
  33.4171          1
  33.4271          0
  33.4371          0
  33.4471          0
  33.4571          1
  33.4671          0
  33.4771          0
  33.4871          1
  33.4971          0
  33.5071          0
  33.5171          0
  33.5271          1
  33.5371          1
  33.5471          0
  33.5571          0
  33.5671          0
  33.5771          0
  33.5871          0
  33.5971          0
  33.6071          0
  33.6171          0
  33.6271          1
  33.6371          0
  33.6471          2
  33.6571          0
  33.6671          2
  33.6771          0
  33.6871          0
  33.6971          0
  33.7071          0
  33.7171          0
  33.7271          1
  33.7371          0
  33.7471          0
  33.7571          0
  33.7671          0
  33.7771          1
  33.7871          0
  33.7971          0
  33.8071          0
  33.8171          0
  33.8271          1
  33.8371          1
  33.8471          0
  33.8571          1
  33.8671          0
  33.8771          0
  33.8871          0
  33.8971          0
  33.9071          0
  33.9171          0
  33.9271          0
  33.9371          4
  33.9471          1
  33.9571          0
  33.9671          0
  33.9771          0
  33.9871          0
  33.9971          0
  34.0071          1
  34.0171          0
  34.0271          1
  34.0371          1
  34.0471          0
  34.0571          1
  34.0671          0
  34.0771          1
  34.0871          0
  34.0971          0
  34.1071          0
  34.1171          0
  34.1271          4
  34.1371          0
  34.1471          0
  34.1571          0
  34.1671          0
  34.1771          0
  34.1871          0
  34.1971          0
  34.2071          0
  34.2171          1
  34.2271          0
  34.2371          0
  34.2471          0
  34.2571          0
  34.2671          0
  34.2771          0
  34.2871          0
  34.2971          0
  34.3071          1
  34.3171          1
  34.3271          0
  34.3371          0
  34.3471          1
  34.3571          1
  34.3671          0
  34.3771          1
  34.3871          0
  34.3971          0
  34.4071          1
  34.4171          0
  34.4271          0
  34.4371          0
  34.4471          1
  34.4571          0
  34.4671          1
  34.4771          1
  34.4871          0
  34.4971          0
  34.5071          2
  34.5171          1
  34.5271          0
  34.5371          0
  34.5471          0
  34.5571          0
  34.5671          0
  34.5771          0
  34.5871          0
  34.5971          0
  34.6071          0
  34.6171          0
  34.6271          1
  34.6371          0
  34.6471          0
  34.6571          0
  34.6671          1
  34.6771          0
  34.6871          3
  34.6971          0
  34.7071          1
  34.7171          0
  34.7271          0
  34.7371          0
  34.7471          1
  34.7571          1
  34.7671          1
  34.7771          0
  34.7871          0
  34.7971          1
  34.8071          0
  34.8171          0
  34.8271          0
  34.8371          0
  34.8471          0
  34.8571          4
  34.8671          0
  34.8771          1
  34.8871          0
  34.8971          0
  34.9071          0
  34.9171          0
  34.9271          0
  34.9371          0
  34.9471          0
  34.9571          0
  34.9671          0
  34.9771          0
  34.9871          0
  34.9971          1
  35.0071          0
  35.0171          0
  35.0271          2
  35.0371          0
  35.0471          1
  35.0571          0
  35.0671          0
  35.0771          0
  35.0871          1
  35.0971          1
  35.1071          1
  35.1171          0
  35.1271          0
  35.1371          0
  35.1471          0
  35.1571          0
  35.1671          1
  35.1771          1
  35.1871          0
  35.1971          1
  35.2071          2
  35.2171          2
  35.2271          0
  35.2371          0
  35.2471          0
  35.2571          0
  35.2671          0
  35.2771          0
  35.2871          0
  35.2971          0
  35.3071          2
  35.3171          0
  35.3271          0
  35.3371          0
  35.3471          0
  35.3571          0
  35.3671          0
  35.3771          0
  35.3871          0
  35.3971          0
  35.4071          0
  35.4171          5
  35.4271          1
  35.4371          0
  35.4471          0
  35.4571          0
  35.4671          0
  35.4771          0
  35.4871          0
  35.4971          0
  35.5071          1
  35.5171          0
  35.5271          0
  35.5371          0
  35.5471          0
  35.5571          0
  35.5671          0